LabVIEW Measurement	
Writer_Version	2
Reader_Version	2
Separator	Tab
Decimal_Separator	.
Multi_Headings	No
X_Columns	One
Time_Pref	Absolute
Operator	trimgus
Date	2022/03/22
Time	13:37:49.854740142822265625
***End_of_Header***	
	
Notes	X values guaranteed valid only for Extensometer Displacement-mm (Mean)				
Channels	4				
Samples	1	1	1	1	
Date	2022/03/22	2022/03/22	2022/03/22	2022/03/22	
Time	13:37:49.854740142822265625	13:37:49.854740142822265625	13:37:49.854740142822265625	13:37:49.8555645942687988281	
Y_Unit_Label	Volts	Volts	Volts	Volts	
X_Dimension	Time	Time	Time	Time	
X0	0.0000000000000000E+0	0.0000000000000000E+0	0.0000000000000000E+0	9.9000000000000005E-2	
Delta_X	0.100000	0.100000	0.100000	0.100000	
***End_of_Header***					
X_Value	Extensometer Displacement-mm (Mean)	Force-N (Mean)	Global Displacement-mm (Mean)	Global Displacement-mm (Mean) 1	Comment
0.000000	-0.005915	-1.994683	-0.000701	-0.027664
0.100000	-0.008596	-1.556402	0.016453	0.051990
0.200000	-0.006625	-2.401562	-0.005325	-0.033583
0.300000	-0.000235	0.888487	0.004970	0.044610
0.400000	-0.007148	-1.188741	0.019319	0.048691
0.500000	-0.005967	-2.630388	0.005415	0.052725
0.600000	-0.015448	-2.996696	0.001974	0.049155
0.700000	-0.003716	0.220837	-0.009225	-0.017471
0.800000	-0.007513	4.181171	-0.011528	-0.043302
0.900000	-0.001271	5.716007	0.003308	0.019108
1.000000	-0.009754	9.013668	0.003176	0.012377
1.100000	-0.007524	8.752084	-0.004674	-0.088126
1.200000	-0.008028	15.203065	0.009496	0.065900
1.300000	-0.004643	20.921290	-0.009172	-0.053745
1.400000	-0.002284	17.994293	0.004918	-0.058220
1.500000	-0.010859	9.041579	0.002970	-0.014600
1.600000	-0.006385	8.714564	0.016950	0.057274
1.700000	-0.011629	10.391724	0.020766	0.122654
1.800000	-0.003545	7.808610	0.021093	0.124672
1.900000	-0.010127	9.673449	0.020809	0.062635
2.000000	-0.001010	14.202053	0.044191	0.161864
2.100000	-0.002415	23.780108	0.090248	0.367294
2.200000	0.002421	30.093738	0.160921	0.586476
2.300000	0.003616	36.778232	0.179259	0.730463
2.400000	0.005735	46.394973	0.242333	0.933499
2.500000	0.004124	58.474011	0.258457	1.002221
2.600000	0.006686	65.958494	0.291726	1.073409
2.700000	0.003902	77.234285	0.335342	1.223912
2.800000	0.008792	87.857314	0.381366	1.413054
2.900000	0.007025	98.512100	0.390724	1.458521
3.000000	-0.000715	107.798702	0.443711	1.565397
3.100000	0.009506	116.871191	0.447385	1.408757
3.200000	0.005929	128.475692	0.500179	1.328716
3.300000	0.008416	137.703689	0.547964	1.457781
3.400000	0.014618	149.787193	0.570224	1.281471
3.500000	0.005456	165.168360	0.604331	1.361746
3.600000	0.018733	185.596214	0.662077	1.452324
3.700000	0.005966	203.988799	0.716220	1.498711
3.800000	0.007987	220.452357	0.748209	1.439555
3.900000	0.008714	235.104266	0.791284	1.567209
4.000000	0.009951	250.187619	0.825279	1.493642
4.100000	0.017928	260.951319	0.885933	1.724575
4.200000	0.017773	275.743927	0.906086	1.600622
4.300000	0.013402	286.906536	0.960025	1.612833
4.400000	0.014292	303.027925	0.982453	1.627095
4.500000	0.018183	315.033900	1.029087	1.659366
4.600000	0.018527	343.103499	1.092228	1.691810
4.700000	0.021278	363.232262	1.131321	1.633861
4.800000	0.017340	379.367064	1.199027	1.762715
4.900000	0.017722	395.392481	1.248248	1.802287
5.000000	0.018879	412.326718	1.270504	1.748310
5.100000	0.016031	428.537526	1.321469	1.712067
5.200000	0.013341	442.460442	1.389058	1.893835
5.300000	0.012957	456.856933	1.387380	1.682297
5.400000	0.020450	471.826272	1.415473	1.699582
5.500000	0.019856	488.733164	1.473430	1.753707
5.600000	0.016168	505.682780	1.504314	1.617284
5.700000	0.015482	522.002160	1.529268	1.565560
5.800000	0.021052	536.677766	1.563173	1.438022
5.900000	0.023110	550.440496	1.614373	1.435826
6.000000	0.021979	567.067468	1.640115	1.458145
6.100000	0.021522	580.773390	1.694802	1.465668
6.200000	0.018119	599.825398	1.731657	1.343615
6.300000	0.023216	612.745853	1.762964	1.469305
6.400000	0.016590	625.859717	1.813051	1.562321
6.500000	0.028329	633.907931	1.857153	1.501666
6.600000	0.022947	650.084935	1.883766	1.502717
6.700000	0.029396	658.500630	1.917207	1.523522
6.800000	0.030230	667.243703	1.948256	1.512339
6.900000	0.035421	673.532300	1.969768	1.395318
7.000000	0.031009	682.656269	1.995718	1.401297
7.100000	0.048977	686.283253	2.035345	1.337847
7.200000	0.062915	694.268868	2.064232	1.311320
7.300000	0.075287	698.826992	2.086515	1.273705
7.400000	0.096102	703.854569	2.109676	1.168189
7.500000	0.113654	704.719228	2.139853	1.122275
7.600000	0.136052	704.893737	2.163833	1.087496
7.700000	0.149704	709.827100	2.178346	1.029020
7.800000	0.152224	714.454713	2.204555	1.007848
7.900000	0.167523	717.452224	2.209330	0.949240
8.000000	0.189464	723.115233	2.249959	0.993712
8.100000	0.198034	728.949277	2.269096	0.916580
8.200000	0.213827	733.707650	2.311981	0.979191
8.300000	0.228662	739.117816	2.335616	0.976695
8.400000	0.247420	744.346545	2.373474	1.033720
8.500000	0.270882	750.479777	2.397581	1.007892
8.600000	0.278729	750.527861	2.432823	1.060393
8.700000	0.300309	752.241684	2.467089	1.131942
8.800000	0.333952	761.372933	2.502711	1.167053
8.900000	0.342741	773.383460	2.519358	1.219181
9.000000	0.342076	775.757304	2.539818	1.145129
9.100000	0.361717	778.355816	2.554731	1.119181
9.200000	0.366217	782.380269	2.580267	1.053970
9.300000	0.380715	791.132112	2.608887	1.076381
9.400000	0.387023	798.215073	2.623075	0.984206
9.500000	0.403578	807.975082	2.657472	1.019714
9.600000	0.419529	817.019438	2.701096	1.054996
9.700000	0.432273	817.150857	2.712393	0.967893
9.800000	0.439062	824.230149	2.744904	0.950686
9.900000	0.451079	828.558243	2.764369	0.959063
10.000000	0.458135	833.908774	2.788499	0.975070
10.100000	0.479432	841.067533	2.810841	1.009649
10.200000	0.493056	845.238448	2.848986	1.061811
10.300000	0.490848	846.250488	2.866262	1.008321
10.400000	0.509638	847.786117	2.872764	0.970962
10.500000	0.516674	843.001675	2.905180	0.980812
10.600000	0.524321	831.647132	2.920485	0.862347
10.700000	0.525411	826.721936	2.913132	0.797292
10.800000	0.527959	819.312370	2.944328	0.784302
10.900000	0.528045	817.298798	2.970048	0.807891
11.000000	0.521798	815.779118	2.998493	0.828548
11.100000	0.531191	812.388868	2.978951	0.665092
11.200000	0.533292	811.152453	2.978192	0.503692
11.300000	0.531132	811.654906	2.982153	0.459031
11.400000	0.532803	810.265454	2.984654	0.444510
11.500000	0.520825	809.436473	2.982905	0.310648
11.600000	0.510230	810.632362	2.991739	0.276090
11.700000	0.346426	811.004604	2.982035	0.269524
11.800000	0.296959	807.259312	3.001665	0.231657
11.900000	0.345206	807.715258	3.007730	0.156026
12.000000	0.346230	802.973130	2.994663	-0.017012
12.100000	0.214092	805.423655	2.986435	0.027157
12.200000	0.030190	802.655849	2.980932	0.005513
12.300000	-0.939617	799.415766	3.004768	0.094852
12.400000	-2.937347	799.957351	3.010972	0.104660
12.500000	-3.652663	802.433190	2.981525	-0.003346
12.600000	-3.970141	799.489866	2.995473	0.016620
12.700000	-4.269377	801.485989	3.005408	0.085425
12.800000	-4.566199	798.460231	2.997794	-0.013645
12.900000	-4.699744	800.574183	2.990015	-0.074797
13.000000	-4.663689	799.494654	3.005957	0.046632
13.100000	-4.676932	799.213805	2.993697	0.022784
13.200000	-4.847837	797.666162	3.003042	0.096817
13.300000	-4.902332	796.215228	3.011597	0.025604
13.400000	-5.141074	797.087067	3.000384	-0.040651
13.500000	-5.216733	794.246699	3.006841	0.096035
13.600000	-5.125568	795.589442	3.014332	0.074076
13.700000	-4.545053	795.902011	3.023787	0.075066
13.800000	-2.612329	796.279189	3.012418	0.059583
13.900000	-3.594101	793.607976	3.022708	0.126648
14.000000	-5.540019	796.111767	3.007043	0.005370
14.100000	-5.903181	795.142275	3.012064	0.074416
14.200000	-6.896527	795.017246	2.989098	-0.055220
14.300000	-5.809233	794.601988	3.011073	-0.007760
14.400000	-4.321731	794.615242	3.009656	0.038745
14.500000	-5.199369	795.216634	3.005939	-0.008468
14.600000	-5.495435	795.550344	3.007235	-0.020670
14.700000	-5.363821	795.423363	3.005094	-0.075578
14.800000	-5.055223	793.643684	3.012603	0.000243
14.900000	-5.155093	792.821237	3.000229	-0.088704
15.000000	-5.331585	794.506257	2.999127	-0.028084
15.100000	-5.349065	792.120420	2.994231	-0.072969
15.200000	-5.193608	795.412819	3.010924	0.088861
15.300000	-5.070472	793.013683	3.013569	0.006003
15.400000	-5.741143	790.893555	2.984734	-0.091652
15.500000	-5.952225	792.410092	3.009878	0.016315
15.600000	-5.713328	795.273184	2.991822	-0.060323
15.700000	-5.438432	793.489700	2.992452	-0.049699
15.800000	-5.340385	794.449214	3.017488	0.016613
15.900000	-5.594283	794.084522	3.006731	0.025172
16.000000	-5.964207	794.422003	3.010273	0.038942
16.100000	-5.989970	793.228669	3.012487	0.075600
16.200000	-4.597187	793.891500	2.991750	-0.077959
16.300000	-0.438071	794.013785	3.014143	0.007757
16.400000	2.006993	794.026333	3.008661	0.089109
16.500000	1.253158	792.865322	3.024810	0.055141
16.600000	1.210288	793.096810	3.007205	0.055086
16.700000	0.599427	792.325105	3.016828	0.101286
16.800000	-0.908869	793.398560	3.000343	-0.064372
16.900000	1.978172	795.292017	2.998693	-0.026811
17.000000	3.725261	791.975569	3.001753	-0.035623
17.100000	4.451225	790.477315	2.992061	-0.079126
17.200000	3.878265	792.152677	3.016051	0.087506
17.300000	4.300442	793.615572	2.997625	-0.058207
17.400000	4.630517	791.718020	3.014380	0.015566
17.500000	5.307755	792.075105	3.004906	-0.071135
17.600000	4.271275	791.701272	3.036477	0.111487
17.700000	4.101946	792.238027	3.030099	0.051202
17.800000	1.076718	795.212781	2.993192	-0.022524
17.900000	-0.413636	793.986906	2.998363	-0.006362
18.000000	-0.372259	791.276281	3.005592	0.016837
18.100000	-0.193284	793.915326	2.990723	-0.002184
18.200000	-0.183135	793.369767	3.003843	-0.047098
18.300000	-0.414070	791.921339	2.989606	-0.033191
18.400000	-1.039378	791.813996	3.003932	-0.036536
18.500000	-1.573791	790.472422	3.006567	0.002266
18.600000	-0.656825	791.962382	3.006773	-0.108590
18.700000	1.078312	793.515808	2.997822	-0.128495
18.800000	1.121856	792.030495	2.986070	-0.034615
18.900000	1.092351	790.899837	3.004495	0.025622
19.000000	0.507421	789.487278	2.997213	-0.029232
19.100000	0.103945	790.257596	2.985059	-0.030633
19.200000	0.246963	790.926332	2.990439	-0.046242
19.300000	0.172332	793.634009	3.000758	0.035071
19.400000	0.148240	791.420792	3.018797	0.058845
19.500000	0.134079	790.326420	3.018167	0.048356
19.600000	0.166197	789.812411	3.004276	-0.010883
19.700000	0.163993	790.319387	3.012862	0.054517
19.800000	0.202954	791.259007	3.011897	0.106794
19.900000	0.237277	791.273175	3.002742	-0.011214
20.000000	0.129499	791.663362	3.011739	0.064357
20.100000	0.155747	790.837000	3.001299	0.059105
20.200000	0.177883	790.424183	3.015149	0.095825
20.300000	0.114266	790.823305	3.010392	0.046051
20.400000	0.110564	791.225169	3.017665	-0.008897
20.500000	0.169243	793.048622	3.000751	-0.067527
20.600000	0.164457	789.337251	3.000129	-0.018663
20.700000	0.171557	791.341298	3.010190	-0.006651
20.800000	0.172115	792.026676	3.002382	-0.042647
20.900000	0.169416	789.539922	2.992423	-0.029017
21.000000	0.167589	792.361346	2.973574	-0.162732
21.100000	0.173015	789.365046	3.004020	0.014535
21.200000	0.166116	802.165475	2.987761	-0.103354
21.300000	0.167265	826.001955	2.972292	-0.148887
21.400000	0.175510	848.088621	2.983729	-0.132776
21.500000	0.168900	868.091618	3.017131	0.049165
21.600000	0.176089	880.992987	3.044965	0.183143
21.700000	0.174129	889.847162	3.068275	0.228065
21.800000	0.174076	896.104125	3.108863	0.409591
21.900000	0.166556	902.670069	3.140712	0.574565
22.000000	0.181897	910.789545	3.190041	0.837233
22.100000	0.176874	916.569704	3.226705	0.877581
22.200000	0.175607	920.901338	3.244427	1.007681
22.300000	0.172775	928.926832	3.273465	1.171138
22.400000	0.168516	932.832840	3.306867	1.269817
22.500000	0.177602	939.175724	3.360128	1.351113
22.600000	0.174693	941.255179	3.385493	1.330513
22.700000	0.174913	944.326151	3.415277	1.354052
22.800000	0.171692	946.399486	3.450056	1.352103
22.900000	0.168751	954.408987	3.489164	1.366315
23.000000	0.173375	965.333833	3.523464	1.316100
23.100000	0.176390	969.664079	3.548882	1.264401
23.200000	0.175189	975.695651	3.587351	1.345065
23.300000	0.172711	981.771537	3.645908	1.460556
23.400000	0.165798	983.677458	3.709291	1.577262
23.500000	0.168636	990.659546	3.735495	1.471571
23.600000	0.166302	996.036213	3.763704	1.486105
23.700000	0.174593	1004.033824	3.802957	1.524802
23.800000	0.173382	1013.351587	3.853031	1.573992
23.900000	0.182224	1012.722209	3.889592	1.576869
24.000000	0.171389	1011.813559	3.938317	1.629911
24.100000	0.172213	1013.872415	3.945267	1.562871
24.200000	0.175812	1020.374390	4.000159	1.615789
24.300000	0.179876	1028.190683	4.036821	1.543678
24.400000	0.175382	1034.624928	4.077764	1.448334
24.500000	0.174709	1036.254337	4.115097	1.492996
24.600000	0.172932	1041.821440	4.148276	1.510345
24.700000	0.175881	1045.603875	4.157593	1.399181
24.800000	0.171558	1048.892885	4.206439	1.394378
24.900000	0.175399	1051.145047	4.238484	1.366445
25.000000	0.167091	1055.138766	4.271356	1.312542
25.100000	0.168268	1058.951792	4.315900	1.450214
25.200000	0.176141	1064.499770	4.334840	1.318296
25.300000	0.165546	1069.822547	4.370632	1.311278
25.400000	0.167919	1075.723488	4.406102	1.289186
25.500000	0.168361	1078.609896	4.430256	1.243179
25.600000	0.178654	1081.675554	4.466698	1.250853
25.700000	0.170280	1089.522174	4.514023	1.396792
25.800000	0.176252	1095.513586	4.566929	1.410158
25.900000	0.173333	1097.585026	4.599764	1.421742
26.000000	0.171521	1103.089153	4.632681	1.423027
26.100000	0.164309	1110.352548	4.641836	1.274916
26.200000	0.176252	1109.712426	4.703482	1.446831
26.300000	0.171282	1111.876367	4.719656	1.376862
26.400000	0.176137	1116.179039	4.772594	1.435751
26.500000	0.175097	1118.204786	4.794030	1.434408
26.600000	0.178822	1117.210227	4.811721	1.357302
26.700000	0.177263	1116.930640	4.825574	1.227546
26.800000	0.171922	1118.260609	4.862813	1.167101
26.900000	0.169775	1123.547415	4.881157	1.104032
27.000000	0.165891	1128.420888	4.912937	1.099005
27.100000	0.175046	1138.057666	4.962318	1.262463
27.200000	0.175486	1138.902362	4.990978	1.125640
27.300000	0.166789	1140.603704	5.020656	1.183770
27.400000	0.167579	1145.041129	5.068805	1.167741
27.500000	0.172865	1145.100487	5.092558	1.164244
27.600000	0.176916	1144.400315	5.112762	1.181241
27.700000	0.180368	1147.528773	5.149219	1.276084
27.800000	0.172760	1149.506595	5.163090	1.175727
27.900000	0.176261	1159.776389	5.191700	1.230195
28.000000	0.178513	1159.283021	5.217239	1.191400
28.100000	0.175465	1154.374451	5.249356	1.126718
28.200000	0.170813	1157.958693	5.274545	1.126969
28.300000	0.173937	1162.821034	5.313763	1.145721
28.400000	0.176723	1168.400874	5.339695	1.066951
28.500000	0.177782	1173.491692	5.373270	1.097630
28.600000	0.169333	1174.949380	5.405575	1.156219
28.700000	0.176922	1175.968750	5.432720	1.105641
28.800000	0.178532	1176.871374	5.445045	1.115744
28.900000	0.174362	1179.820531	5.498978	1.197126
29.000000	0.172169	1182.131582	5.516333	1.176153
29.100000	0.167931	1188.484885	5.548252	1.178082
29.200000	0.176259	1189.877932	5.606880	1.293717
29.300000	0.170190	1191.968118	5.636348	1.272056
29.400000	0.170449	1194.279468	5.664274	1.268292
29.500000	0.170801	1197.524069	5.720163	1.371648
29.600000	0.171223	1197.480083	5.753039	1.362391
29.700000	0.177940	1196.698808	5.796288	1.426618
29.800000	0.178966	1197.409592	5.827878	1.500995
29.900000	0.174553	1197.617774	5.855008	1.407010
30.000000	0.175978	1202.895166	5.863770	1.361439
30.100000	0.170751	1208.154856	5.888749	1.340781
30.200000	0.176856	1209.743056	5.954758	1.369070
30.300000	0.172726	1210.963393	5.975754	1.326641
30.400000	0.165450	1211.247396	6.018719	1.403792
30.500000	0.166328	1212.343781	6.066943	1.356108
30.600000	0.174054	1214.390860	6.090234	1.325678
30.700000	0.165453	1215.895470	6.123187	1.288496
30.800000	0.174304	1212.143725	6.144508	1.241990
30.900000	0.169171	1213.109697	6.173816	1.250094
31.000000	0.172363	1218.498524	6.200067	1.318455
31.100000	0.167472	1222.952248	6.234456	1.361638
31.200000	0.174569	1226.233753	6.258443	1.194366
31.300000	0.160267	1225.287172	6.325994	1.376883
31.400000	0.169172	1224.174712	6.348166	1.289085
31.500000	0.170826	1226.557801	6.387103	1.261947
31.600000	0.172805	1229.856529	6.407505	1.246392
31.700000	0.171377	1233.267849	6.443630	1.256874
31.800000	0.166065	1235.570069	6.481060	1.324174
31.900000	0.172334	1233.002543	6.516068	1.348993
32.000000	0.170059	1235.918488	6.556164	1.393647
32.100000	0.171787	1241.415739	6.578845	1.353824
32.200000	0.176825	1244.725755	6.623086	1.427278
32.300000	0.170032	1250.385927	6.677389	1.385664
32.400000	0.168306	1250.081174	6.718711	1.457523
32.500000	0.180344	1248.740990	6.748140	1.417196
32.600000	0.165556	1248.984483	6.785878	1.486379
32.700000	0.173097	1247.306484	6.799333	1.398868
32.800000	0.172239	1246.767046	6.838978	1.404486
32.900000	0.178400	1242.127995	6.861136	1.350758
33.000000	0.169439	1246.651114	6.882081	1.288189
33.100000	0.167525	1252.774880	6.898413	1.255038
33.200000	0.173567	1253.141773	6.938625	1.251053
33.300000	0.172604	1256.957554	6.954297	1.083042
33.400000	0.175588	1256.378447	6.993176	1.080764
33.500000	0.180080	1255.661452	7.041794	1.155131
33.600000	0.171580	1254.320529	7.085652	1.178372
33.700000	0.184032	1255.676326	7.115112	1.235310
33.800000	0.171349	1260.771511	7.132009	1.157233
33.900000	0.168883	1262.899595	7.164088	1.189349
34.000000	0.173574	1258.203915	7.176933	1.158816
34.100000	0.172657	1257.198224	7.201814	1.192028
34.200000	0.177976	1259.860010	7.225716	1.120715
34.300000	0.176010	1265.022906	7.247580	1.161400
34.400000	0.175750	1266.745941	7.294097	1.178778
34.500000	0.176910	1268.862346	7.314496	1.070720
34.600000	0.171389	1269.774537	7.344129	1.011956
34.700000	0.172479	1269.564102	7.366303	0.992376
34.800000	0.177660	1272.850261	7.411097	1.093630
34.900000	0.176100	1273.778434	7.450264	1.125110
35.000000	0.172655	1273.820241	7.474439	1.176036
35.100000	0.177496	1270.705338	7.506782	1.184901
35.200000	0.180588	1272.963498	7.539678	1.235332
35.300000	0.179125	1277.654865	7.568280	1.259471
35.400000	0.184502	1280.507906	7.588615	1.163359
35.500000	0.179916	1280.141933	7.630871	1.240684
35.600000	0.166945	1278.425174	7.661882	1.250545
35.700000	0.170038	1279.503181	7.679241	1.231225
35.800000	0.174394	1278.636721	7.706414	1.156213
35.900000	0.169039	1281.752162	7.751072	1.184806
36.000000	0.169188	1282.165149	7.754601	1.095178
36.100000	0.176326	1280.497587	7.802672	1.172065
36.200000	0.169084	1285.937813	7.830704	1.140921
36.300000	0.178481	1285.244579	7.864677	1.168522
36.400000	0.174303	1286.171863	7.915546	1.274340
36.500000	0.171677	1286.376571	7.935008	1.200249
36.600000	0.177226	1290.505091	7.976404	1.232533
36.700000	0.176332	1288.970202	7.999405	1.261606
36.800000	0.172646	1288.497519	8.054421	1.361187
36.900000	0.168988	1291.046078	8.073154	1.268209
37.000000	0.164632	1288.218035	8.085639	1.299165
37.100000	0.169880	1284.986641	8.126934	1.274978
37.200000	0.169258	1290.974022	8.158891	1.289323
37.300000	0.168548	1288.953061	8.167894	1.188536
37.400000	0.165606	1289.690470	8.208063	1.159633
37.500000	0.173940	1287.395687	8.215055	1.096412
37.600000	0.166873	1291.996787	8.246827	1.064122
37.700000	0.169206	1295.592555	8.289960	1.136377
37.800000	0.175723	1297.115619	8.341102	1.132101
37.900000	0.176767	1297.270446	8.363624	1.141037
38.000000	0.170645	1296.054015	8.394981	1.211713
38.100000	0.169769	1299.892046	8.434926	1.210477
38.200000	0.175540	1298.850029	8.458033	1.174626
38.300000	0.182401	1297.846919	8.496937	1.296840
38.400000	0.175444	1297.414117	8.526312	1.243490
38.500000	0.169249	1297.229683	8.547196	1.307403
38.600000	0.172329	1299.528838	8.589467	1.350353
38.700000	0.175711	1296.072166	8.616057	1.278482
38.800000	0.173951	1301.792279	8.644388	1.193267
38.900000	0.179283	1302.550924	8.705970	1.338442
39.000000	0.175147	1301.972539	8.723796	1.297025
39.100000	0.170848	1303.443789	8.790121	1.386682
39.200000	0.165325	1303.948524	8.816257	1.412962
39.300000	0.180769	1301.827841	8.845089	1.363109
39.400000	0.166832	1300.106554	8.876994	1.382114
39.500000	0.171739	1303.484859	8.902667	1.394461
39.600000	0.172934	1305.727687	8.939305	1.371349
39.700000	0.174698	1307.943926	8.965136	1.379598
39.800000	0.171336	1308.126111	9.011957	1.434219
39.900000	0.172585	1305.908912	9.060415	1.397672
40.000000	0.170463	1303.568979	9.081812	1.410695
40.100000	0.168556	1298.246755	9.095626	1.210855
40.200000	0.174289	1296.649762	9.112560	1.161788
40.300000	0.169865	1306.170268	9.147455	1.189287
40.400000	0.168265	1306.675473	9.182746	1.196381
40.500000	0.177702	1307.867877	9.201759	1.174535
40.600000	0.174497	1308.523404	9.230635	1.146412
40.700000	0.167298	1307.608335	9.262469	1.162088
40.800000	0.169504	1311.505541	9.306813	1.169547
40.900000	0.173078	1311.090039	9.331074	1.063555
41.000000	0.170756	1311.131474	9.376737	1.147839
41.100000	0.173603	1311.504626	9.400728	1.201558
41.200000	0.182714	1310.230568	9.427203	1.231560
41.300000	0.171090	1306.056422	9.453227	1.206923
41.400000	0.173522	1309.332755	9.495310	1.232374
41.500000	0.178767	1310.511484	9.502464	1.178381
41.600000	0.175370	1310.787672	9.547579	1.244525
41.700000	0.178548	1310.183498	9.582066	1.260810
41.800000	0.172831	1314.820969	9.596781	1.138000
41.900000	0.164843	1314.920009	9.649095	1.246797
42.000000	0.165046	1312.507099	9.668816	1.153085
42.100000	0.176999	1315.309104	9.709566	1.207323
42.200000	0.176184	1312.731211	9.718362	1.146371
42.300000	0.177644	1311.692164	9.750649	1.168341
42.400000	0.172207	1315.671150	9.761813	1.047780
42.500000	0.165231	1317.016164	9.802278	1.180305
42.600000	0.168945	1314.366021	9.832270	1.117146
42.700000	0.174375	1316.714932	9.867765	1.121025
42.800000	0.175766	1316.758543	9.897586	1.181870
42.900000	0.173303	1312.596499	9.923967	1.088495
43.000000	0.176254	1314.553955	9.968500	1.171549
43.100000	0.173868	1316.941646	9.980101	1.068336
43.200000	0.177394	1315.652657	10.014302	1.161025
43.300000	0.176299	1316.772048	10.040501	1.135809
43.400000	0.178226	1315.431431	10.077800	1.237915
43.500000	0.171174	1319.778698	10.111783	1.214615
43.600000	0.167010	1319.860451	10.116646	1.123880
43.700000	0.170436	1316.924156	10.184588	1.242685
43.800000	0.180017	1317.900697	10.195258	1.168063
43.900000	0.170360	1320.563982	10.226527	1.181460
44.000000	0.175096	1322.050900	10.249777	1.108240
44.100000	0.173235	1321.479994	10.309405	1.291356
44.200000	0.177528	1321.469781	10.341864	1.288488
44.300000	0.171629	1320.892206	10.375504	1.317437
44.400000	0.169375	1317.172911	10.413365	1.320092
44.500000	0.169253	1317.297304	10.434725	1.267748
44.600000	0.177595	1321.467367	10.475132	1.403634
44.700000	0.179987	1320.834806	10.533289	1.374042
44.800000	0.170708	1320.819970	10.545248	1.373500
44.900000	0.169087	1319.390811	10.593515	1.438975
45.000000	0.173122	1319.898956	10.614909	1.437923
45.100000	0.175313	1323.066247	10.641659	1.302562
45.200000	0.172136	1323.216081	10.718494	1.481677
45.300000	0.166625	1321.585787	10.750277	1.471609
45.400000	0.175019	1319.852896	10.778900	1.433621
45.500000	0.168819	1318.996758	10.792722	1.411828
45.600000	0.166445	1322.249729	10.846695	1.455989
45.700000	0.175371	1326.758023	10.868477	1.318810
45.800000	0.171284	1321.483921	10.909913	1.431694
45.900000	0.164258	1321.380812	10.985752	1.540489
46.000000	0.171340	1324.915293	10.987324	1.464082
46.100000	0.171629	1322.176727	11.043091	1.579716
46.200000	0.164627	1321.786697	11.084506	1.436850
46.300000	0.177171	1322.517874	11.119100	1.443644
46.400000	0.175336	1322.555556	11.150866	1.462187
46.500000	0.162721	1324.228907	11.181725	1.527836
46.600000	0.178302	1324.773735	11.231689	1.511911
46.700000	0.174372	1319.416715	11.255558	1.523725
46.800000	0.178055	1320.160349	11.284949	1.478560
46.900000	0.165929	1319.045415	11.327858	1.343697
47.000000	0.176050	1323.634379	11.365564	1.484139
47.100000	0.176350	1322.207320	11.418298	1.468865
47.200000	0.177129	1319.348140	11.469227	1.513396
47.300000	0.170826	1321.039832	11.488904	1.455411
47.400000	0.181966	1324.323932	11.540948	1.535410
47.500000	0.172160	1322.519534	11.580497	1.563052
47.600000	0.167257	1319.073745	11.611979	1.499168
47.700000	0.170195	1321.938193	11.634277	1.476861
47.800000	0.169736	1320.891369	11.678044	1.550689
47.900000	0.170543	1318.200426	11.706655	1.488616
48.000000	0.169615	1317.327542	11.761898	1.560483
48.100000	0.173113	1318.621998	11.765924	1.367610
48.200000	0.175507	1319.096123	11.811321	1.346924
48.300000	0.169987	1321.484487	11.837316	1.369548
48.400000	0.173630	1322.282959	11.875629	1.314016
48.500000	0.172669	1320.688892	11.910539	1.301438
48.600000	0.178235	1320.414888	11.947567	1.312010
48.700000	0.179830	1319.551424	11.978431	1.364216
48.800000	0.178152	1319.095737	12.012678	1.301616
48.900000	0.164759	1320.631593	12.072105	1.441405
49.000000	0.180656	1322.213522	12.102653	1.334294
49.100000	0.172094	1322.022538	12.126509	1.416880
49.200000	0.176109	1317.057819	12.172140	1.415289
49.300000	0.169649	1315.707866	12.197681	1.418085
49.400000	0.180556	1320.057641	12.220342	1.355059
49.500000	0.173161	1318.225383	12.277504	1.440968
49.600000	0.172784	1316.893993	12.292083	1.352088
49.700000	0.166135	1314.482872	12.334544	1.400280
49.800000	0.167973	1312.232022	12.360124	1.365160
49.900000	0.169335	1314.085419	12.380747	1.215981
50.000000	0.173337	1312.841605	12.399458	1.168988
50.100000	0.166360	1311.684890	12.427972	1.190103
50.200000	0.167211	1314.492806	12.450256	1.092486
50.300000	0.169756	1313.491701	12.466106	1.050669
50.400000	0.177223	1312.573313	12.500872	1.102840
50.500000	0.175297	1313.331634	12.523118	0.977439
50.600000	0.179818	1310.185862	12.559908	1.053854
50.700000	0.182718	1308.622281	12.580573	0.958965
50.800000	0.178565	1309.101497	12.616501	1.011523
50.900000	0.173788	1304.518446	12.646755	1.044599
51.000000	0.174547	1303.306066	12.664679	1.040722
51.100000	0.170416	1306.365656	12.672670	0.959270
51.200000	0.177213	1304.441304	12.710266	1.023587
51.300000	0.174406	1307.787605	12.740597	1.082509
51.400000	0.184331	1305.657198	12.771126	1.058347
51.500000	0.168945	1307.227255	12.824604	1.168671
51.600000	0.171654	1302.744449	12.862194	1.193962
51.700000	0.178933	1302.742603	12.883516	1.190525
51.800000	0.170247	1301.707626	12.914455	1.172015
51.900000	0.182996	1298.035396	12.940984	1.161510
52.000000	0.175948	1301.100247	12.967475	1.184961
52.100000	0.166091	1300.282071	12.988896	1.237771
52.200000	0.173803	1296.741338	13.029335	1.258118
52.300000	0.174387	1298.412639	13.079369	1.324389
52.400000	0.175990	1296.261384	13.134682	1.428559
52.500000	0.167473	1289.006448	13.156344	1.310421
52.600000	0.171452	1287.828297	13.188102	1.275765
52.700000	0.168682	1285.672057	13.221336	1.327852
52.800000	0.172752	1279.977791	13.249949	1.316659
52.900000	0.172129	1279.100545	13.297326	1.396995
53.000000	0.168043	1274.594532	13.349383	1.496314
53.100000	0.166611	1268.268650	13.364196	1.475639
53.200000	0.167175	1263.459296	13.406016	1.474232
53.300000	0.173833	1260.312442	13.458221	1.499242
53.400000	0.170333	1251.935625	13.482838	1.371971
53.500000	0.173588	1242.289244	13.531726	1.470777
53.600000	0.175578	1231.780336	13.577426	1.531667
53.700000	0.171237	1221.995240	13.614082	1.535822
53.800000	0.174705	1209.190673	13.657751	1.604526
53.900000	0.176591	1192.594581	13.707775	1.607966
54.000000	0.167389	1175.880678	13.740950	1.546242
54.100000	0.175982	1158.521850	13.761254	1.557901
54.200000	0.170629	1136.567835	13.814956	1.609440
54.300000	0.179143	1112.370058	13.857993	1.566738
54.400000	0.171363	1094.713120	13.882882	1.565778
54.500000	0.180171	1066.515684	13.905679	1.478489
54.600000	0.169530	1021.794315	13.958404	1.490139
54.700000	0.169374	963.834488	14.008797	1.549590
54.800000	0.163375	537.138727	14.104045	1.758353
54.900000	0.164099	-6.511872	14.089954	1.510436
55.000000	0.169081	-5.921364	14.118526	1.477740
55.100000	0.165171	-6.608486	14.159939	1.564537
55.200000	0.162687	-5.402494	14.167775	1.391594
55.300000	0.170169	-6.484238	14.164939	1.209768
55.400000	0.169660	-5.709025	14.168906	1.127895
55.500000	0.168217	-4.596294	14.170418	1.042154
55.600000	0.168158	-6.035844	14.157038	0.793916
55.700000	0.166850	-6.474676	14.166642	0.628304
55.800000	0.165010	-7.979366	14.177729	0.291994
55.900000	0.172826	-7.139541	14.164811	0.291781
56.000000	0.160507	-6.996871	14.180868	0.248495
56.100000	0.161528	-7.456188	14.166259	0.043201
56.200000	0.161383	-3.285329	14.180121	0.043726
56.300000	0.159264	-5.199446	14.164131	-0.004229
56.400000	0.162562	-3.069689	14.161941	-0.018920
56.500000	0.173347	-2.799961	14.171532	-0.001582
56.600000	0.161302	-4.636370	14.055509	-0.373273
