LabVIEW Measurement	
Writer_Version	2
Reader_Version	2
Separator	Tab
Decimal_Separator	.
Multi_Headings	No
X_Columns	One
Time_Pref	Absolute
Operator	trimgus
Date	2022/03/22
Time	13:41:11.3481802940368652344
***End_of_Header***	
	
Notes	X values guaranteed valid only for Extensometer Displacement-mm (Mean)				
Channels	4				
Samples	1	1	1	1	
Date	2022/03/22	2022/03/22	2022/03/22	2022/03/22	
Time	13:41:11.3481802940368652344	13:41:11.3481802940368652344	13:41:11.3481802940368652344	13:41:11.3528575897216796875	
Y_Unit_Label	Volts	Volts	Volts	Volts	
X_Dimension	Time	Time	Time	Time	
X0	0.0000000000000000E+0	0.0000000000000000E+0	0.0000000000000000E+0	9.9000000000000005E-2	
Delta_X	0.100000	0.100000	0.100000	0.100000	
***End_of_Header***					
X_Value	Extensometer Displacement-mm (Mean)	Force-N (Mean)	Global Displacement-mm (Mean)	Global Displacement-mm (Mean) 1	Comment
0.000000	0.010695	-2.019523	-0.005993	0.026709
0.100000	-0.000971	-1.083330	-0.002086	-0.006997
0.200000	-0.003669	-0.333259	0.005343	-0.026853
0.300000	-0.001811	-2.599900	0.003949	0.031551
0.400000	-0.005235	-2.655827	0.002877	0.090850
0.500000	-0.006905	-0.809817	0.002787	0.020265
0.600000	-0.001133	-0.776852	-0.016175	-0.047937
0.700000	-0.006849	-0.560352	-0.008721	-0.053006
0.800000	-0.013356	-0.600791	0.001049	-0.004761
0.900000	-0.005994	0.042744	0.018713	0.081464
1.000000	0.001921	-0.425987	-0.004541	0.006478
1.100000	-0.002499	2.505741	-0.006083	-0.010708
1.200000	0.001311	6.964044	-0.003716	-0.037054
1.300000	-0.005421	4.924622	0.004417	-0.007250
1.400000	0.000374	-4.177994	-0.008626	-0.040911
1.500000	-0.003630	-3.181168	-0.006633	-0.037997
1.600000	-0.007685	0.238346	-0.003276	0.050458
1.700000	-0.008388	-1.208133	-0.011602	-0.012105
1.800000	0.004006	-3.317845	-0.007866	-0.029329
1.900000	0.000933	-1.250400	0.005634	-0.053803
2.000000	0.001054	-4.219167	0.027065	0.117069
2.100000	-0.003842	12.899329	0.046221	0.194786
2.200000	-0.003782	23.049107	0.095070	0.388986
2.300000	0.001420	33.102373	0.128656	0.483219
2.400000	0.011959	41.147092	0.174494	0.710935
2.500000	0.007419	53.635392	0.208888	0.847333
2.600000	0.013147	64.995211	0.241527	0.955889
2.700000	0.009435	77.644513	0.257240	1.056726
2.800000	0.007100	87.049318	0.281542	1.128648
2.900000	0.007322	102.143319	0.314965	1.207803
3.000000	0.008493	120.651284	0.370301	1.347196
3.100000	0.017412	137.030376	0.392170	1.364679
3.200000	0.009330	149.970130	0.426101	1.303865
3.300000	0.017148	157.796961	0.451987	1.275128
3.400000	0.014178	168.425074	0.484564	1.218996
3.500000	0.019788	180.882924	0.505648	1.158713
3.600000	0.012539	203.495508	0.560255	1.248944
3.700000	0.018131	218.893949	0.577713	1.259781
3.800000	0.007188	233.887721	0.606962	1.276742
3.900000	0.016436	249.988511	0.626493	1.236452
4.000000	0.014734	269.796533	0.650178	1.101811
4.100000	0.028231	285.879017	0.677822	1.124908
4.200000	0.032078	300.834057	0.733265	1.194314
4.300000	0.022304	317.675904	0.744102	1.149599
4.400000	0.021318	335.938414	0.776069	1.145558
4.500000	0.014862	354.291914	0.810624	1.202941
4.600000	0.010595	372.622720	0.843048	1.110246
4.700000	0.017305	385.214485	0.891632	1.233500
4.800000	0.022471	400.280820	0.927314	1.253222
4.900000	0.026057	420.807191	0.956764	1.292335
5.000000	0.023596	437.823825	1.008493	1.407881
5.100000	0.019918	456.409359	1.034913	1.399931
5.200000	0.032563	468.229918	1.070747	1.332843
5.300000	0.029641	482.698350	1.107435	1.427503
5.400000	0.022667	503.777130	1.151430	1.471572
5.500000	0.022033	525.368618	1.185016	1.470279
5.600000	0.022526	535.532364	1.247604	1.593989
5.700000	0.017079	523.525880	1.263433	1.452510
5.800000	0.026515	546.962722	1.308802	1.504535
5.900000	0.021257	565.500681	1.352002	1.547339
6.000000	0.026142	586.479998	1.391965	1.503981
6.100000	0.025862	601.805814	1.438037	1.588846
6.200000	0.030125	609.907697	1.479443	1.598306
6.300000	0.035440	623.053728	1.488959	1.504522
6.400000	0.044609	636.215100	1.534056	1.509339
6.500000	0.044055	649.694460	1.557336	1.458595
6.600000	0.058374	656.854617	1.618547	1.457497
6.700000	0.068819	657.809931	1.641231	1.487016
6.800000	0.086019	657.961735	1.664117	1.401375
6.900000	0.103630	660.615081	1.698022	1.364460
7.000000	0.122360	667.504787	1.725843	1.310481
7.100000	0.144081	672.669724	1.777700	1.326231
7.200000	0.167037	675.769852	1.823530	1.367654
7.300000	0.174724	677.636315	1.822977	1.299189
7.400000	0.187003	684.907179	1.847278	1.228770
7.500000	0.206933	689.500160	1.876056	1.258600
7.600000	0.204083	698.938735	1.926073	1.215571
7.700000	0.224405	708.303690	1.944228	1.186714
7.800000	0.232664	714.761144	1.969446	1.198040
7.900000	0.245336	723.893055	2.019086	1.255887
8.000000	0.256647	732.288920	2.049585	1.284584
8.100000	0.273805	737.841319	2.075126	1.171825
8.200000	0.284826	746.874347	2.107329	1.103343
8.300000	0.305415	753.334857	2.166406	1.349519
8.400000	0.309646	759.266233	2.178966	1.299411
8.500000	0.325286	759.645413	2.207074	1.305470
8.600000	0.344405	768.932125	2.230985	1.195176
8.700000	0.348771	775.222082	2.243872	1.181671
8.800000	0.358175	777.351409	2.265349	1.160327
8.900000	0.368010	783.220394	2.296462	1.095071
9.000000	0.374264	790.693555	2.327681	1.087944
9.100000	0.385757	800.166380	2.366931	1.148367
9.200000	0.400523	807.197397	2.402248	1.162117
9.300000	0.419695	812.534808	2.406847	0.952700
9.400000	0.429901	816.242871	2.444925	1.040056
9.500000	0.445582	824.386359	2.466990	1.018143
9.600000	0.454449	828.327305	2.506690	1.080027
9.700000	0.466296	831.494653	2.528167	1.121159
9.800000	0.481842	838.918427	2.555437	1.139671
9.900000	0.490307	842.135118	2.567811	1.067610
10.000000	0.499873	847.304175	2.600830	1.064517
10.100000	0.513150	856.679778	2.646677	1.109097
10.200000	0.529070	863.706270	2.685045	1.112290
10.300000	0.546839	870.624978	2.703385	1.159051
10.400000	0.564571	875.976919	2.732578	1.137510
10.500000	0.575972	881.368655	2.771309	1.186847
10.600000	0.590403	884.188574	2.796726	1.141833
10.700000	0.612716	888.617702	2.821086	1.151398
10.800000	0.618401	893.353210	2.851082	1.159734
10.900000	0.630538	895.510949	2.875078	1.202253
11.000000	0.643955	903.571604	2.912784	1.236377
11.100000	0.653707	908.497755	2.911384	1.037093
11.200000	0.658867	901.279397	2.950298	1.034619
11.300000	0.669045	882.550245	3.048483	1.351576
11.400000	0.675519	875.439670	3.073540	1.346443
11.500000	0.671904	871.931181	3.058850	1.141226
11.600000	0.676240	871.491542	3.051611	1.004630
11.700000	0.673887	866.646308	3.047851	0.886317
11.800000	0.677243	864.459258	3.046968	0.777378
11.900000	0.671851	866.240365	3.065048	0.756204
12.000000	0.636390	866.514284	3.061781	0.582421
12.100000	0.636911	862.781634	3.065200	0.598960
12.200000	-0.113026	862.234016	3.083927	0.542789
12.300000	-0.715951	859.101436	3.084604	0.153129
12.400000	-2.748085	857.459917	3.085594	0.045042
12.500000	-3.934350	854.781790	3.086288	0.102450
12.600000	-3.902035	855.677334	3.088119	0.140424
12.700000	-3.860084	855.017091	3.096172	0.197253
12.800000	-3.887748	853.137951	3.090183	0.170323
12.900000	-4.061130	851.120921	3.076036	0.035796
13.000000	-2.702857	850.778523	3.084064	0.093429
13.100000	-3.210909	851.046037	3.086714	0.086136
13.200000	-2.066313	851.680254	3.091918	0.032216
13.300000	0.360948	853.915588	3.102346	0.067153
13.400000	-1.412837	849.075658	3.095086	0.036810
13.500000	-1.470097	848.293246	3.091242	0.021344
13.600000	-2.006087	850.926038	3.090548	0.011945
13.700000	-2.076730	848.613693	3.081082	-0.060617
13.800000	-2.055549	847.494089	3.067066	-0.095581
13.900000	-1.361628	846.826735	3.095884	0.078466
14.000000	0.089508	846.766149	3.091519	0.032288
14.100000	-0.165304	848.329582	3.088493	0.009507
14.200000	-0.268762	846.594359	3.092781	0.002623
14.300000	-0.574515	846.399111	3.089440	-0.049316
14.400000	-0.116163	847.256241	3.089283	-0.028992
14.500000	0.195558	847.385900	3.101967	0.043779
14.600000	-1.105043	846.849920	3.105599	0.060858
14.700000	-0.852280	846.102252	3.096763	0.062233
14.800000	-0.219386	844.125877	3.092180	0.099642
14.900000	1.208423	847.554279	3.088647	-0.027637
15.000000	1.841475	846.261164	3.092054	-0.001628
15.100000	1.687077	843.142807	3.087411	-0.001551
15.200000	1.403900	845.642660	3.071817	-0.078409
15.300000	1.008772	847.288763	3.083433	-0.031370
15.400000	0.849408	845.017405	3.091435	0.011768
15.500000	0.589400	846.056569	3.084255	-0.070643
15.600000	0.452942	846.313050	3.081206	-0.088170
15.700000	0.223607	845.416208	3.068826	-0.116577
15.800000	0.214445	846.589958	3.086811	-0.014270
15.900000	0.276222	845.559468	3.090590	0.004180
16.000000	0.592281	845.908862	3.095551	0.014041
16.100000	1.103893	844.081006	3.082358	-0.022487
16.200000	0.420159	843.392231	3.102499	0.112632
16.300000	0.460959	845.184830	3.101296	0.077950
16.400000	0.314919	845.651418	3.073023	-0.063218
16.500000	0.205699	844.331184	3.078460	-0.031959
16.600000	0.081546	846.856561	3.080300	-0.002862
16.700000	0.053204	846.447686	3.078072	0.036750
16.800000	-0.004776	845.427980	3.096905	0.034208
16.900000	-0.041715	844.439771	3.087026	-0.004957
17.000000	-0.062038	846.068209	3.072408	-0.098165
17.100000	0.005838	845.689047	3.096781	0.056748
17.200000	0.011757	844.347591	3.091264	-0.042600
17.300000	0.013241	844.322009	3.088633	-0.044001
17.400000	0.014955	843.222030	3.085224	0.038190
17.500000	0.017597	844.284972	3.082738	0.020134
17.600000	0.030246	844.767301	3.084300	0.014792
17.700000	0.015086	845.336302	3.077655	-0.000827
17.800000	0.072225	844.156639	3.083965	-0.047254
17.900000	0.094457	844.063887	3.089662	0.007461
18.000000	0.070867	844.173657	3.084061	0.046913
18.100000	0.077540	843.894933	3.090750	-0.023686
18.200000	0.080675	845.260390	3.089403	-0.006094
18.300000	0.074740	840.863165	3.078921	-0.039902
18.400000	0.081061	842.468311	3.077442	-0.031074
18.500000	0.072660	843.943422	3.095310	0.048465
18.600000	0.076832	844.377746	3.086206	0.006121
18.700000	0.077192	847.319083	3.045176	-0.113757
18.800000	0.078574	869.047846	3.043031	-0.169643
18.900000	0.074244	908.261696	3.055719	-0.133452
19.000000	0.073520	930.771156	3.075946	-0.037697
19.100000	0.081371	940.080478	3.098042	0.034678
19.200000	0.079646	950.394873	3.148233	0.224633
19.300000	0.082169	955.571954	3.176961	0.374886
19.400000	0.078136	964.166326	3.217203	0.550147
19.500000	0.080000	975.260002	3.242560	0.571674
19.600000	0.074112	977.285473	3.290676	0.796453
19.700000	0.082040	972.206409	3.323178	1.075745
19.800000	0.074160	975.697420	3.355966	1.226390
19.900000	0.077193	983.842916	3.370012	1.236324
20.000000	0.079696	989.992166	3.417799	1.343228
20.100000	0.082397	998.030967	3.442068	1.345350
20.200000	0.075364	993.769242	3.481663	1.312115
20.300000	0.076026	996.863959	3.491756	1.243140
20.400000	0.078411	1005.675066	3.521772	1.192345
20.500000	0.075750	1015.981186	3.557388	1.242383
20.600000	0.074171	1027.383699	3.603664	1.228013
20.700000	0.079104	1024.953012	3.646586	1.267069
20.800000	0.082340	1027.367884	3.668419	1.238619
20.900000	0.075151	1034.119554	3.712342	1.333594
21.000000	0.081294	1040.927707	3.747497	1.299946
21.100000	0.078704	1045.929389	3.769533	1.288683
21.200000	0.079120	1045.860558	3.803382	1.262838
21.300000	0.063839	1048.973265	3.829222	1.324718
21.400000	0.081415	1055.587425	3.859914	1.326235
21.500000	0.078075	1065.526598	3.897345	1.335423
21.600000	0.079922	1066.076046	3.943787	1.329877
21.700000	0.073979	1066.324408	3.995138	1.376811
21.800000	0.078412	1071.859134	4.038934	1.446213
21.900000	0.075794	1075.166269	4.060576	1.377765
22.000000	0.082489	1075.825553	4.091254	1.351378
22.100000	0.077734	1077.037412	4.113865	1.349008
22.200000	0.076584	1079.154921	4.160369	1.400942
22.300000	0.078146	1084.277916	4.189575	1.411679
22.400000	0.082441	1094.317988	4.235239	1.475453
22.500000	0.072800	1101.723418	4.264742	1.448597
22.600000	0.084211	1098.396744	4.319267	1.483230
22.700000	0.077423	1099.670752	4.335921	1.332471
22.800000	0.079661	1105.085752	4.368764	1.301159
22.900000	0.073886	1113.225805	4.415090	1.384436
23.000000	0.076512	1117.810471	4.469577	1.482468
23.100000	0.075687	1117.474559	4.487910	1.471471
23.200000	0.075812	1116.417598	4.542618	1.504372
23.300000	0.082997	1122.046857	4.562350	1.464451
23.400000	0.075785	1128.555781	4.612416	1.481637
23.500000	0.080474	1136.090022	4.655805	1.533088
23.600000	0.076201	1131.985334	4.686264	1.445129
23.700000	0.082687	1134.979301	4.705326	1.449854
23.800000	0.076575	1140.672162	4.767831	1.562786
23.900000	0.074323	1141.979915	4.794016	1.499291
24.000000	0.077243	1145.247477	4.816623	1.367017
24.100000	0.078065	1149.056751	4.864741	1.476594
24.200000	0.071234	1150.691989	4.891261	1.366646
24.300000	0.077477	1152.317236	4.921477	1.412669
24.400000	0.075830	1158.510961	4.955549	1.358147
24.500000	0.072425	1160.567182	4.989789	1.308510
24.600000	0.075641	1161.534623	5.049460	1.421270
24.700000	0.082059	1166.723262	5.066062	1.423685
24.800000	0.070836	1168.712850	5.089597	1.261458
24.900000	0.072877	1170.227371	5.127508	1.313764
25.000000	0.074691	1174.268296	5.168089	1.374615
25.100000	0.082313	1173.828220	5.205876	1.348334
25.200000	0.079855	1180.344207	5.216829	1.283923
25.300000	0.081756	1181.176416	5.249061	1.285224
25.400000	0.083062	1183.659624	5.274310	1.244336
25.500000	0.071713	1172.248301	5.295484	1.207327
25.600000	0.080629	1174.849964	5.359928	1.220547
25.700000	0.077965	1183.798920	5.378212	1.223793
25.800000	0.079407	1183.591410	5.402463	1.228964
25.900000	0.081561	1186.550312	5.416007	1.141752
26.000000	0.083908	1188.806732	5.441822	1.078284
26.100000	0.076290	1198.299402	5.492055	1.116229
26.200000	0.077764	1197.085876	5.498898	1.108904
26.300000	0.079777	1201.610569	5.526203	1.090994
26.400000	0.074971	1205.421070	5.573253	1.173105
26.500000	0.081713	1210.668575	5.596999	1.188013
26.600000	0.082688	1212.528513	5.628337	1.051309
26.700000	0.077938	1211.107511	5.696847	1.251630
26.800000	0.076439	1213.668255	5.696940	1.161118
26.900000	0.081076	1216.319388	5.734889	1.247110
27.000000	0.079197	1220.022289	5.764428	1.265865
27.100000	0.080447	1216.810940	5.805079	1.234741
27.200000	0.074233	1225.047744	5.842883	1.346667
27.300000	0.077663	1228.398391	5.880556	1.388457
27.400000	0.074439	1226.701032	5.914403	1.345752
27.500000	0.073909	1227.369594	5.958514	1.410860
27.600000	0.081039	1231.697144	5.975466	1.371624
27.700000	0.079034	1235.626900	6.009519	1.227748
27.800000	0.074443	1240.525309	6.047810	1.374758
27.900000	0.082806	1238.577621	6.095111	1.414636
28.000000	0.076282	1240.491076	6.136520	1.464818
28.100000	0.085413	1248.400956	6.178310	1.459052
28.200000	0.076249	1248.877299	6.217685	1.472897
28.300000	0.075455	1247.037344	6.271142	1.538207
28.400000	0.077334	1250.043322	6.318076	1.580740
28.500000	0.083781	1253.691383	6.364392	1.599783
28.600000	0.078757	1251.406503	6.400594	1.669280
28.700000	0.078218	1249.260773	6.421610	1.621575
28.800000	0.074919	1252.462790	6.449001	1.579727
28.900000	0.071643	1258.138177	6.505360	1.599106
29.000000	0.072374	1259.439163	6.547206	1.619807
29.100000	0.076373	1263.531963	6.586206	1.602699
29.200000	0.075025	1265.488723	6.648646	1.690544
29.300000	0.071071	1265.436754	6.677462	1.600578
29.400000	0.077588	1264.631308	6.721713	1.587232
29.500000	0.078340	1268.026828	6.769588	1.591389
29.600000	0.079024	1269.426346	6.805342	1.581317
29.700000	0.080631	1270.250623	6.879828	1.794635
29.800000	0.080655	1273.243962	6.897197	1.765528
29.900000	0.076937	1275.841906	6.957851	1.778862
30.000000	0.081655	1279.754962	7.014169	1.828399
30.100000	0.085162	1280.108193	7.046076	1.808874
30.200000	0.082975	1280.389239	7.118823	1.851930
30.300000	0.077005	1280.709120	7.142641	1.826710
30.400000	0.084854	1274.947437	7.186169	1.824610
30.500000	0.073726	1279.085000	7.222589	1.777485
30.600000	0.072163	1282.914647	7.251595	1.758491
30.700000	0.076385	1285.033714	7.308054	1.686582
30.800000	0.073460	1287.938973	7.324611	1.678537
30.900000	0.069559	1287.927212	7.363558	1.601244
31.000000	0.074329	1286.980675	7.413209	1.567032
31.100000	0.067634	1285.351575	7.433490	1.530041
31.200000	0.075764	1288.802930	7.479481	1.408886
31.300000	0.080370	1287.365106	7.505395	1.429745
31.400000	0.078770	1286.003824	7.540739	1.390672
31.500000	0.071718	1288.005658	7.553442	1.305415
31.600000	0.072138	1292.034498	7.602691	1.377064
31.700000	0.079936	1294.027477	7.658648	1.378464
31.800000	0.083315	1296.869902	7.709746	1.507842
31.900000	0.074677	1293.628403	7.730148	1.441084
32.000000	0.074232	1294.306109	7.760758	1.369672
32.100000	0.076399	1298.462058	7.786288	1.384712
32.200000	0.077120	1297.483538	7.841454	1.426671
32.300000	0.072573	1293.868636	7.868300	1.422008
32.400000	0.075806	1298.460259	7.880052	1.336436
32.500000	0.079358	1302.653595	7.919136	1.435448
32.600000	0.071808	1304.691147	7.959013	1.399751
32.700000	0.074649	1299.357736	7.998563	1.338360
32.800000	0.072762	1304.843536	8.020186	1.220446
32.900000	0.082325	1300.465021	8.038826	1.221918
33.000000	0.076671	1302.618242	8.075736	1.226872
33.100000	0.079358	1303.478535	8.103542	1.253036
33.200000	0.076324	1304.391908	8.122627	1.108920
33.300000	0.081018	1301.453392	8.145075	1.079128
33.400000	0.066992	1305.079203	8.187927	1.208241
33.500000	0.074779	1305.413294	8.206251	1.135757
33.600000	0.068441	1307.139214	8.241440	1.106648
33.700000	0.083690	1306.883743	8.292178	1.146785
33.800000	0.072190	1306.946973	8.309334	1.146885
33.900000	0.073777	1305.763411	8.336259	1.163147
34.000000	0.078832	1306.481766	8.379474	1.197482
34.100000	0.078262	1308.535725	8.393302	1.133105
34.200000	0.082978	1309.049074	8.442470	1.248719
34.300000	0.075491	1312.343290	8.487163	1.353363
34.400000	0.081462	1313.454272	8.521233	1.312135
34.500000	0.075466	1318.079630	8.556366	1.362900
34.600000	0.080482	1313.078017	8.579732	1.337712
34.700000	0.074947	1313.772206	8.623996	1.307508
34.800000	0.074607	1313.733532	8.668867	1.409419
34.900000	0.084809	1314.473290	8.683866	1.359923
35.000000	0.073364	1315.649056	8.729359	1.373720
35.100000	0.083645	1317.302988	8.789139	1.557541
35.200000	0.072714	1316.505960	8.826556	1.514709
35.300000	0.080375	1319.380261	8.845866	1.404828
35.400000	0.073713	1319.849610	8.890493	1.446557
35.500000	0.074691	1317.361412	8.920803	1.439386
35.600000	0.080835	1318.055979	8.959921	1.486333
35.700000	0.081282	1320.155086	9.004454	1.492753
35.800000	0.081551	1320.316459	9.055696	1.514845
35.900000	0.085812	1318.389733	9.109422	1.674485
36.000000	0.076903	1319.198526	9.121338	1.542809
36.100000	0.084803	1324.618838	9.167461	1.480861
36.200000	0.078970	1325.656226	9.206878	1.498238
36.300000	0.075675	1320.967880	9.257194	1.615713
36.400000	0.076623	1318.388642	9.289218	1.564826
36.500000	0.072265	1320.074671	9.335793	1.629802
36.600000	0.081387	1319.660104	9.360542	1.582153
36.700000	0.078439	1316.893979	9.396059	1.541121
36.800000	0.082926	1317.260593	9.424443	1.448576
36.900000	0.078204	1320.613679	9.454117	1.351154
37.000000	0.082227	1323.880808	9.497061	1.480573
37.100000	0.073281	1325.384166	9.517717	1.380060
37.200000	0.079434	1324.399653	9.570101	1.425425
37.300000	0.084825	1323.245965	9.607918	1.379675
37.400000	0.072880	1325.839740	9.638768	1.376205
37.500000	0.082786	1327.952401	9.675046	1.331415
37.600000	0.071550	1330.062358	9.712280	1.376971
37.700000	0.079688	1329.684615	9.745015	1.369479
37.800000	0.072146	1328.886546	9.808290	1.509696
37.900000	0.078375	1328.278653	9.849782	1.556439
38.000000	0.074859	1329.856094	9.895576	1.556914
38.100000	0.080326	1328.337671	9.915964	1.565248
38.200000	0.082197	1327.144102	9.960830	1.538012
38.300000	0.073969	1327.119613	9.996102	1.521487
38.400000	0.078304	1328.377385	10.015723	1.490451
38.500000	0.071926	1329.678857	10.054239	1.478888
38.600000	0.084088	1330.756877	10.092612	1.497752
38.700000	0.070693	1329.524937	10.116188	1.464415
38.800000	0.080850	1330.501926	10.161710	1.392856
38.900000	0.080117	1328.292652	10.196142	1.360510
39.000000	0.086734	1329.734257	10.216708	1.265760
39.100000	0.080306	1326.321109	10.257502	1.339756
39.200000	0.076680	1327.686935	10.289370	1.290887
39.300000	0.075783	1327.855147	10.314434	1.250831
39.400000	0.077113	1328.262558	10.350611	1.306012
39.500000	0.081004	1330.092093	10.378451	1.284784
39.600000	0.082040	1326.743098	10.403725	1.227409
39.700000	0.072697	1328.262043	10.438792	1.255872
39.800000	0.079640	1332.254841	10.488240	1.288489
39.900000	0.073243	1328.079649	10.533972	1.323522
40.000000	0.079256	1330.553392	10.531424	1.242391
40.100000	0.087935	1329.323889	10.565406	1.210614
40.200000	0.080041	1328.009683	10.590837	1.181379
40.300000	0.076744	1329.438176	10.645019	1.304776
40.400000	0.075576	1328.458387	10.663047	1.231151
40.500000	0.074251	1330.753377	10.681200	1.183911
40.600000	0.084000	1326.205941	10.701227	1.167134
40.700000	0.074452	1327.738874	10.735374	1.178601
40.800000	0.078059	1330.676438	10.770302	1.098379
40.900000	0.077876	1332.395333	10.769367	0.934031
41.000000	0.085340	1332.430924	10.811510	1.091180
41.100000	0.076763	1328.404443	10.859704	1.158580
41.200000	0.081172	1330.956939	10.898285	1.207981
41.300000	0.081385	1331.888160	10.925091	1.096757
41.400000	0.079118	1331.716143	10.975681	1.227015
41.500000	0.086131	1331.737605	10.988859	1.214497
41.600000	0.085531	1329.633354	11.027573	1.277115
41.700000	0.078653	1331.197426	11.065426	1.290127
41.800000	0.083683	1332.684277	11.089139	1.258643
41.900000	0.075739	1332.632158	11.146025	1.472566
42.000000	0.076281	1332.956627	11.186719	1.476101
42.100000	0.079597	1330.392573	11.232156	1.460324
42.200000	0.081084	1332.906824	11.271812	1.470687
42.300000	0.086006	1328.317649	11.292529	1.444945
42.400000	0.076338	1329.994177	11.341284	1.442451
42.500000	0.078872	1330.047726	11.329549	1.335802
42.600000	0.074815	1329.337792	11.382112	1.391465
42.700000	0.079201	1329.441662	11.408831	1.353019
42.800000	0.072422	1331.156028	11.448292	1.406238
42.900000	0.079505	1330.097946	11.475661	1.294194
43.000000	0.078816	1328.743966	11.542533	1.400578
43.100000	0.075637	1334.098266	11.573551	1.342684
43.200000	0.066559	1331.163838	11.593769	1.267256
43.300000	0.078439	1330.255947	11.619680	1.289088
43.400000	0.070903	1332.084286	11.662932	1.247208
43.500000	0.083419	1332.228230	11.724091	1.552421
43.600000	0.077033	1332.681298	11.778120	1.560065
43.700000	0.079097	1330.794772	11.798985	1.527311
43.800000	0.075283	1333.286598	11.846903	1.561160
43.900000	0.084282	1331.909523	11.862511	1.530429
44.000000	0.079658	1333.780856	11.936294	1.539578
44.100000	0.080191	1334.734930	11.987186	1.627617
44.200000	0.076918	1332.607647	12.040331	1.745023
44.300000	0.078839	1329.055025	12.094711	1.865573
44.400000	0.076965	1328.450518	12.104074	1.741042
44.500000	0.076935	1330.008488	12.150056	1.673251
44.600000	0.070614	1332.858298	12.185575	1.600680
44.700000	0.075059	1334.479191	12.223907	1.669045
44.800000	0.076444	1332.508094	12.266358	1.648330
44.900000	0.072720	1333.710295	12.307203	1.747748
45.000000	0.073187	1326.569250	12.354608	1.647348
45.100000	0.082364	1329.019314	12.382807	1.554049
45.200000	0.079614	1327.282914	12.424192	1.512549
45.300000	0.080858	1327.560062	12.452809	1.409860
45.400000	0.074120	1327.392434	12.496317	1.541627
45.500000	0.074936	1330.311461	12.550361	1.569733
45.600000	0.072761	1331.798524	12.566422	1.494272
45.700000	0.084351	1334.270840	12.614211	1.536964
45.800000	0.078468	1330.134849	12.650005	1.508575
45.900000	0.078458	1327.939777	12.686200	1.487055
46.000000	0.070540	1327.743287	12.716582	1.434274
46.100000	0.075189	1327.895924	12.715754	1.301317
46.200000	0.077921	1327.537740	12.759242	1.318913
46.300000	0.073444	1328.136736	12.806615	1.383479
46.400000	0.079276	1331.749014	12.838506	1.346260
46.500000	0.074960	1327.371716	12.876192	1.279979
46.600000	0.075442	1324.224032	12.908525	1.347286
46.700000	0.075456	1326.605862	12.943497	1.299790
46.800000	0.077763	1322.036839	12.960354	1.217235
46.900000	0.070285	1318.816779	12.997618	1.229039
47.000000	0.080368	1324.149021	13.012079	1.146631
47.100000	0.078654	1324.146214	13.037748	1.270475
47.200000	0.084929	1325.482222	13.066345	1.208835
47.300000	0.084624	1326.172311	13.097328	1.150130
47.400000	0.073994	1327.455326	13.132990	1.153029
47.500000	0.078761	1324.946180	13.167447	1.150075
47.600000	0.079528	1325.033747	13.212384	1.187595
47.700000	0.076846	1326.050007	13.235881	1.145239
47.800000	0.075483	1327.286826	13.272209	1.228508
47.900000	0.086945	1325.392699	13.311802	1.225048
48.000000	0.084746	1322.296940	13.359604	1.379411
48.100000	0.065223	1323.582278	13.381786	1.343805
48.200000	0.068892	1322.811009	13.421942	1.398951
48.300000	0.075338	1323.340397	13.458609	1.410434
48.400000	0.073716	1325.050326	13.488094	1.399257
48.500000	0.084631	1320.816808	13.539375	1.455752
48.600000	0.075318	1317.621198	13.556615	1.362949
48.700000	0.077045	1319.055373	13.580626	1.351853
48.800000	0.071335	1320.988095	13.647848	1.471107
48.900000	0.072825	1322.271280	13.668257	1.405651
49.000000	0.079720	1321.062946	13.710680	1.370224
49.100000	0.076264	1323.361695	13.781239	1.564102
49.200000	0.075518	1320.644560	13.828437	1.600206
49.300000	0.077776	1320.062753	13.845863	1.526669
49.400000	0.079670	1317.488432	13.899257	1.617275
49.500000	0.075143	1319.406723	13.925243	1.516920
49.600000	0.074465	1318.104253	13.975461	1.642266
49.700000	0.087500	1319.174684	14.015388	1.703296
49.800000	0.076553	1314.330879	14.042795	1.556074
49.900000	0.079144	1314.738573	14.086457	1.642096
50.000000	0.072797	1314.602030	14.144860	1.703982
50.100000	0.077293	1316.719188	14.191428	1.620731
50.200000	0.082284	1314.121795	14.226279	1.552770
50.300000	0.078053	1315.882250	14.258722	1.619101
50.400000	0.069420	1317.868698	14.308870	1.610699
50.500000	0.076403	1312.659642	14.379797	1.789242
50.600000	0.073325	1313.370225	14.426850	1.764707
50.700000	0.078927	1313.991241	14.442439	1.684287
50.800000	0.070009	1310.501625	14.491347	1.766319
50.900000	0.071961	1310.567915	14.522829	1.713516
51.000000	0.086503	1312.078725	14.568066	1.661042
51.100000	0.071348	1313.611508	14.613365	1.657110
51.200000	0.078754	1314.115967	14.676799	1.774389
51.300000	0.082697	1312.165188	14.734919	1.865899
51.400000	0.076612	1306.953427	14.765548	1.794394
51.500000	0.080365	1309.045614	14.808085	1.685366
51.600000	0.073125	1307.494142	14.844486	1.643070
51.700000	0.083653	1308.140290	14.899217	1.794024
51.800000	0.086016	1304.060116	14.928578	1.713588
51.900000	0.072435	1302.490808	14.960323	1.718177
52.000000	0.078660	1303.121192	14.991735	1.674663
52.100000	0.076782	1301.539283	15.023728	1.608013
52.200000	0.078339	1299.838227	15.060884	1.517192
52.300000	0.073572	1298.868053	15.094450	1.414728
52.400000	0.074641	1297.277412	15.125926	1.415746
52.500000	0.073322	1293.989918	15.168243	1.411791
52.600000	0.073053	1294.541691	15.182715	1.331847
52.700000	0.075926	1295.174704	15.246731	1.366726
52.800000	0.072289	1291.415613	15.254040	1.281735
52.900000	0.074193	1288.422494	15.277085	1.240473
53.000000	0.067548	1289.945823	15.320228	1.297326
53.100000	0.075442	1287.825561	15.347893	1.277549
53.200000	0.072940	1284.349670	15.409866	1.360334
53.300000	0.083201	1281.121903	15.440195	1.357054
53.400000	0.076498	1280.437875	15.480110	1.394723
53.500000	0.074663	1278.349390	15.520506	1.386997
53.600000	0.075186	1269.569247	15.561735	1.485543
53.700000	0.086169	1260.941998	15.601108	1.390255
53.800000	0.082891	1248.575960	15.626295	1.459944
53.900000	0.074705	1239.140990	15.664580	1.526348
54.000000	0.082828	1230.508451	15.675900	1.393027
54.100000	0.072065	1218.124213	15.717296	1.449513
54.200000	0.078415	1204.692448	15.744713	1.320058
54.300000	0.079533	1188.540292	15.799917	1.415900
54.400000	0.079578	1165.882327	15.856742	1.476994
54.500000	0.079024	1136.815614	15.905559	1.512030
54.600000	0.074945	1110.406796	15.922979	1.423127
54.700000	0.077825	1083.914798	15.955229	1.392794
54.800000	0.077845	1055.130155	16.005736	1.487507
54.900000	0.078143	1013.460513	16.030924	1.443934
55.000000	0.079423	952.107749	16.057598	1.496347
55.100000	0.072746	600.973328	16.136223	1.639050
55.200000	0.071964	-14.383085	16.115091	1.465138
55.300000	0.075907	-16.770697	16.126895	1.292451
55.400000	0.080417	-16.694523	16.156062	1.175529
55.500000	0.072854	-18.955731	16.159590	1.005200
55.600000	0.076469	-19.974629	16.138268	0.850200
55.700000	0.079528	-18.071845	16.177601	0.870016
