LabVIEW Measurement	
Writer_Version	2
Reader_Version	2
Separator	Tab
Decimal_Separator	.
Multi_Headings	No
X_Columns	One
Time_Pref	Absolute
Operator	trimgus
Date	2022/03/22
Time	13:30:24.6514530181884765625
***End_of_Header***	
	
Notes	X values guaranteed valid only for Extensometer Displacement-mm (Mean)				
Channels	4				
Samples	1	1	1	1	
Date	2022/03/22	2022/03/22	2022/03/22	2022/03/22	
Time	13:30:24.6514530181884765625	13:30:24.6514530181884765625	13:30:24.6514530181884765625	13:30:24.6569590568542480469	
Y_Unit_Label	Volts	Volts	Volts	Volts	
X_Dimension	Time	Time	Time	Time	
X0	0.0000000000000000E+0	0.0000000000000000E+0	0.0000000000000000E+0	9.9000000000000005E-2	
Delta_X	0.100000	0.100000	0.100000	0.100000	
***End_of_Header***					
X_Value	Extensometer Displacement-mm (Mean)	Force-N (Mean)	Global Displacement-mm (Mean)	Global Displacement-mm (Mean) 1	Comment
0.000000	0.008000	-1.631396	-0.018884	-0.031814
0.100000	0.003664	-1.965970	-0.012984	-0.009221
0.200000	0.003505	-0.660001	-0.019520	-0.072855
0.300000	0.005749	0.709355	0.002931	0.017458
0.400000	0.007344	-0.048886	-0.007276	0.003786
0.500000	0.008335	-1.652898	-0.002599	0.019998
0.600000	0.007782	-0.158569	-0.003800	-0.040974
0.700000	0.013614	0.034074	-0.012909	-0.050794
0.800000	0.004405	1.653644	-0.001196	0.027187
0.900000	0.008198	1.614751	-0.022844	-0.064132
1.000000	0.004962	0.480482	-0.009798	0.027078
1.100000	0.011595	-0.647929	-0.021107	-0.026543
1.200000	0.003315	1.055575	-0.019313	-0.000326
1.300000	0.015961	1.306353	-0.001533	-0.021357
1.400000	0.003972	6.067059	-0.000507	0.028104
1.500000	0.001382	13.499867	-0.034386	-0.119432
1.600000	0.022210	15.683232	-0.077515	-0.287954
1.700000	0.010519	7.183556	-0.105616	-0.356733
1.800000	0.014585	5.806525	-0.081682	-0.320200
1.900000	0.008181	7.387883	-0.100747	-0.314199
2.000000	0.009534	6.890594	-0.089794	-0.306513
2.100000	0.015265	6.103768	-0.100161	-0.314750
2.200000	0.012323	7.408928	-0.100392	-0.316703
2.300000	0.002983	9.982841	-0.104815	-0.403682
2.400000	0.015906	17.061702	-0.081038	-0.319794
2.500000	0.010979	22.760188	-0.014110	0.064756
2.600000	0.014060	32.851911	0.020324	0.380535
2.700000	0.002051	47.824899	0.052902	0.612296
2.800000	0.007493	63.288945	0.085320	0.646489
2.900000	0.015430	75.118095	0.115993	0.853302
3.000000	0.007753	85.609018	0.123090	0.837839
3.100000	0.014517	95.783657	0.168037	1.041541
3.200000	0.016275	108.278119	0.188132	1.132028
3.300000	0.009686	120.023962	0.213472	1.251423
3.400000	0.012120	136.385762	0.252893	1.301855
3.500000	0.001528	153.902537	0.270249	1.129353
3.600000	0.003981	169.936707	0.290287	1.065675
3.700000	0.009242	185.677074	0.312373	1.012983
3.800000	0.004081	207.042314	0.342796	1.027099
3.900000	0.015072	225.225309	0.370469	0.985062
4.000000	0.013770	237.543231	0.391003	1.054350
4.100000	0.014056	249.157510	0.421690	1.001368
4.200000	0.016732	259.836906	0.447713	1.015874
4.300000	0.016706	275.808338	0.472867	1.021908
4.400000	0.014041	291.684150	0.480397	0.897084
4.500000	0.019988	309.833434	0.522842	0.990183
4.600000	0.022869	330.553205	0.529479	0.932966
4.700000	0.003032	348.522097	0.579220	1.061404
4.800000	0.012896	365.138368	0.591033	0.965304
4.900000	0.018170	375.745936	0.609504	0.949135
5.000000	0.008521	390.058136	0.622156	0.903233
5.100000	0.016091	404.543948	0.651871	0.904409
5.200000	0.017408	415.226582	0.669570	0.880508
5.300000	0.012840	431.945559	0.693195	0.855906
5.400000	0.013498	448.659511	0.715521	0.929561
5.500000	0.023830	468.341630	0.735047	0.828917
5.600000	0.012306	480.926049	0.768611	0.940757
5.700000	0.013352	494.086670	0.778847	0.784461
5.800000	0.017387	504.844045	0.798548	0.818841
5.900000	0.011649	514.932349	0.811668	0.795937
6.000000	0.013323	527.960544	0.823782	0.790242
6.100000	0.020306	539.055184	0.834243	0.721396
6.200000	0.021227	552.440708	0.858332	0.735963
6.300000	0.022536	564.983254	0.879275	0.736689
6.400000	0.019751	576.403674	0.873461	0.621968
6.500000	0.021122	587.675815	0.884617	0.591678
6.600000	0.018442	596.245240	0.894775	0.502184
6.700000	0.025503	608.375961	0.899778	0.471989
6.800000	0.019119	624.010411	0.923565	0.487362
6.900000	0.019715	640.310431	0.943580	0.521990
7.000000	0.021873	664.628615	0.967588	0.563932
7.100000	0.026252	676.471118	0.951910	0.461273
7.200000	0.023370	692.201141	0.971743	0.445258
7.300000	0.026474	708.357041	1.004162	0.498194
7.400000	0.032342	723.638454	1.028158	0.595904
7.500000	0.019123	738.012531	1.033023	0.586966
7.600000	0.031434	751.036205	1.041614	0.570969
7.700000	0.023166	767.011295	1.059921	0.633350
7.800000	0.030453	781.281520	1.082979	0.628563
7.900000	0.027698	796.266686	1.104945	0.628623
8.000000	0.025894	810.360283	1.106003	0.548054
8.100000	0.030938	823.780790	1.128679	0.691055
8.200000	0.034428	845.310636	1.163971	0.755522
8.300000	0.028701	861.455038	1.158672	0.600465
8.400000	0.025563	871.368387	1.201069	0.687888
8.500000	0.031058	881.280254	1.184081	0.594539
8.600000	0.036178	893.037516	1.192094	0.590875
8.700000	0.038087	905.078418	1.208243	0.584463
8.800000	0.034975	916.565617	1.209882	0.497211
8.900000	0.038580	932.719263	1.242248	0.545475
9.000000	0.041240	942.466040	1.249337	0.558163
9.100000	0.048135	957.588669	1.279948	0.597942
9.200000	0.057915	967.524838	1.292447	0.503901
9.300000	0.051853	972.918827	1.302884	0.567666
9.400000	0.059753	981.487203	1.303568	0.403937
9.500000	0.056377	992.186495	1.309805	0.488791
9.600000	0.062234	1000.791648	1.330064	0.544057
9.700000	0.076176	1010.871022	1.329563	0.477272
9.800000	0.084777	1023.861730	1.343812	0.526661
9.900000	0.081898	1031.418908	1.381168	0.544875
10.000000	0.087776	1040.064688	1.406026	0.614379
10.100000	0.103015	1042.047659	1.421812	0.555784
10.200000	0.111348	1048.682284	1.444364	0.599933
10.300000	0.125046	1053.922323	1.441998	0.548888
10.400000	0.127102	1059.148573	1.445351	0.553957
10.500000	0.133485	1063.125446	1.443415	0.525808
10.600000	0.137351	1061.161876	1.465353	0.525445
10.700000	0.153416	1071.936237	1.480585	0.594170
10.800000	0.164848	1082.985939	1.496186	0.603279
10.900000	0.169529	1083.458187	1.513664	0.523152
11.000000	0.180223	1089.743836	1.539809	0.522290
11.100000	0.199167	1097.141895	1.558712	0.541344
11.200000	0.206122	1103.734861	1.596130	0.587554
11.300000	0.219879	1107.329456	1.607324	0.648804
11.400000	0.229350	1113.482595	1.635771	0.746554
11.500000	0.249426	1117.147635	1.669207	0.882198
11.600000	0.264662	1118.585711	1.677818	0.842385
11.700000	0.279413	1120.820822	1.706514	0.877705
11.800000	0.284425	1126.270525	1.714591	0.859800
11.900000	0.305065	1130.102651	1.752823	0.936660
12.000000	0.314445	1131.309807	1.758140	0.865847
12.100000	0.324793	1132.870023	1.803285	0.954628
12.200000	0.339322	1137.616676	1.799378	0.807082
12.300000	0.348569	1145.650513	1.852139	0.956665
12.400000	0.357619	1144.981925	1.851836	0.856417
12.500000	0.372064	1146.964197	1.871415	0.793489
12.600000	0.376776	1148.251369	1.890131	0.830607
12.700000	0.387758	1153.188867	1.891450	0.732028
12.800000	0.403874	1156.363069	1.919921	0.802833
12.900000	0.411130	1162.596810	1.936440	0.724973
13.000000	0.421701	1169.923516	1.963403	0.805118
13.100000	0.432016	1168.289924	1.974784	0.670597
13.200000	0.453865	1167.572362	1.993330	0.765049
13.300000	0.458462	1172.481029	2.033833	0.714117
13.400000	0.473475	1179.746630	2.073125	0.863129
13.500000	0.478526	1177.747315	2.082383	0.832006
13.600000	0.495169	1179.910950	2.088174	0.775256
13.700000	0.513959	1182.156440	2.126992	0.924674
13.800000	0.521677	1187.719016	2.137867	0.859254
13.900000	0.527983	1189.462889	2.142265	0.806372
14.000000	0.551202	1186.091927	2.172991	0.824998
14.100000	0.554782	1186.998627	2.180783	0.819310
14.200000	0.566795	1190.632591	2.213876	0.858891
14.300000	0.563945	1193.546643	2.210574	0.699020
14.400000	0.579626	1198.535335	2.233916	0.631770
14.500000	0.590207	1199.153425	2.259470	0.698315
14.600000	0.599407	1205.106450	2.285903	0.773110
14.700000	0.605208	1207.845679	2.283155	0.622362
14.800000	0.623401	1209.414507	2.315529	0.693229
14.900000	0.637554	1212.234147	2.338701	0.768396
15.000000	0.648324	1216.711383	2.358711	0.723666
15.100000	0.654785	1217.615590	2.389392	0.819635
15.200000	0.677145	1217.947350	2.406385	0.762602
15.300000	0.684501	1217.236184	2.404350	0.757351
15.400000	0.705214	1219.464960	2.417391	0.724709
15.500000	0.709319	1223.206341	2.450112	0.745984
15.600000	0.716140	1227.111794	2.453898	0.667432
15.700000	0.729137	1228.275742	2.484598	0.780129
15.800000	0.734547	1225.321529	2.496342	0.715301
15.900000	0.738904	1228.123703	2.501234	0.645816
16.000000	0.754310	1229.318869	2.520098	0.637315
16.100000	0.764098	1233.629881	2.531385	0.558570
16.200000	0.769596	1236.054120	2.538817	0.519154
16.300000	0.787049	1236.110280	2.572595	0.656062
16.400000	0.792759	1241.610504	2.583840	0.653597
16.500000	0.803669	1244.804728	2.596722	0.580327
16.600000	0.818438	1249.043295	2.621766	0.655516
16.700000	0.834449	1246.888284	2.639377	0.613063
16.800000	0.837569	1247.490999	2.636523	0.548961
16.900000	0.859289	1250.531131	2.669365	0.656933
17.000000	0.867095	1254.784459	2.692205	0.673980
17.100000	0.879120	1253.874761	2.707109	0.688613
17.200000	0.893223	1256.379603	2.718114	0.707346
17.300000	0.903023	1256.318322	2.736664	0.648249
17.400000	0.910027	1257.360774	2.746723	0.638941
17.500000	0.927676	1260.156444	2.762018	0.649077
17.600000	0.925231	1253.740666	2.771860	0.589234
17.700000	0.935744	1244.670417	2.805412	0.652107
17.800000	0.938322	1236.226238	2.826598	0.743696
17.900000	0.944610	1232.919311	2.877283	0.812409
18.000000	0.943689	1229.948758	2.885187	0.768555
18.100000	0.940388	1229.013378	2.889789	0.717802
18.200000	0.942940	1224.939577	2.887401	0.666183
18.300000	0.946587	1225.585066	2.880703	0.567124
18.400000	0.952824	1224.243518	2.876937	0.513483
18.500000	0.949021	1222.198172	2.886724	0.489110
18.600000	0.944329	1222.752595	2.893056	0.482323
18.700000	0.936628	1221.516827	2.882441	0.299421
18.800000	0.911217	1220.321785	2.888789	0.252340
18.900000	0.901432	1217.433212	2.901762	0.109465
19.000000	0.784123	1218.245473	2.893311	0.025960
19.100000	0.803731	1217.154551	2.904702	0.055129
19.200000	0.834532	1216.738198	2.879215	-0.029374
19.300000	0.791316	1216.095053	2.899787	0.077673
19.400000	0.425096	1216.301876	2.902461	0.091822
19.500000	-0.049572	1213.398156	2.892355	0.030219
19.600000	-1.625227	1213.130831	2.902728	0.032196
19.700000	-2.635077	1214.544426	2.897275	0.057270
19.800000	-2.700899	1212.228145	2.885248	-0.005653
19.900000	-3.001726	1210.229103	2.914142	0.040918
20.000000	-3.411874	1212.089573	2.909565	0.058998
20.100000	-4.250194	1213.019150	2.912248	0.040411
20.200000	-5.428757	1208.144733	2.916407	0.136854
20.300000	-6.084732	1211.525964	2.927801	0.112584
20.400000	-5.273516	1207.537359	2.914110	0.052622
20.500000	-1.067887	1207.247243	2.912021	0.070858
20.600000	3.835474	1206.307531	2.900739	-0.001110
20.700000	1.894796	1207.472326	2.925848	0.111800
20.800000	-0.479401	1207.108059	2.915156	0.114016
20.900000	-0.830153	1207.817305	2.900856	-0.047540
21.000000	-0.966381	1207.033993	2.898346	-0.042236
21.100000	-1.161964	1205.284775	2.891090	-0.082306
21.200000	-1.359096	1206.954679	2.919298	0.006469
21.300000	-1.123665	1206.802442	2.913093	-0.058626
21.400000	-0.953141	1206.880291	2.897292	-0.069074
21.500000	-0.904973	1206.301910	2.903324	-0.028244
21.600000	-0.879632	1208.909727	2.902645	0.006838
21.700000	-0.861310	1207.470218	2.906048	-0.072832
21.800000	-0.825626	1204.229235	2.897660	-0.072333
21.900000	-0.831279	1204.340854	2.912672	0.039909
22.000000	-0.818312	1206.010537	2.911850	0.057925
22.100000	-0.718725	1205.009030	2.895420	0.011662
22.200000	-0.723647	1204.335831	2.906454	-0.040206
22.300000	-1.058898	1205.140669	2.911658	-0.008025
22.400000	-1.218416	1204.156856	2.918015	0.082943
22.500000	-1.576544	1204.446945	2.899927	-0.020224
22.600000	-1.827979	1203.039257	2.904681	0.004724
22.700000	-1.783168	1205.679786	2.906947	0.009169
22.800000	-1.727306	1202.172360	2.894129	-0.012221
22.900000	-1.755388	1204.146691	2.914533	0.011482
23.000000	-1.801922	1202.770609	2.882254	-0.126932
23.100000	0.101390	1204.770695	2.898601	0.014753
23.200000	2.582022	1201.568656	2.912982	0.023551
23.300000	2.337535	1202.908885	2.913531	0.011115
23.400000	1.932368	1205.899163	2.904074	-0.055964
23.500000	-0.435917	1203.225583	2.916479	0.072674
23.600000	-4.880142	1204.871418	2.899519	-0.016539
23.700000	-5.870746	1201.247475	2.891042	-0.075408
23.800000	-3.299110	1205.582326	2.902784	0.031033
23.900000	-1.081201	1203.230417	2.918716	0.018325
24.000000	-1.290232	1203.111676	2.920268	0.158100
24.100000	-1.218424	1202.023075	2.887102	-0.043508
24.200000	-0.413381	1203.303332	2.922858	0.032301
24.300000	0.271508	1202.082084	2.918480	0.022088
24.400000	1.191152	1200.660583	2.903852	-0.002002
24.500000	0.680200	1201.937317	2.907469	-0.043376
24.600000	0.256234	1202.711046	2.910995	0.044392
24.700000	0.312720	1202.576736	2.913199	0.095085
24.800000	0.051715	1202.320001	2.908951	0.024438
24.900000	0.060908	1203.024845	2.919919	0.007962
25.000000	0.074279	1200.723612	2.901914	-0.079996
25.100000	0.106865	1201.067674	2.895958	0.032581
25.200000	0.204251	1202.313759	2.905674	-0.056696
25.300000	0.112975	1201.801716	2.928566	0.030706
25.400000	0.099334	1202.790498	2.914281	0.043230
25.500000	0.101386	1202.562967	2.900376	-0.022735
25.600000	0.091890	1202.978001	2.920324	0.037397
25.700000	0.104917	1203.264012	2.900991	-0.047437
25.800000	0.135372	1202.484844	2.904714	-0.020089
25.900000	0.141547	1201.004804	2.900049	-0.079615
26.000000	0.132538	1201.156880	2.904591	0.008146
26.100000	0.121377	1200.282596	2.905662	0.046594
26.200000	0.101763	1202.211341	2.892878	-0.052594
26.300000	0.102479	1201.274868	2.900991	-0.108690
26.400000	0.143694	1202.276804	2.895275	-0.076172
26.500000	0.153506	1200.341052	2.898719	-0.009116
26.600000	0.157058	1202.332918	2.906764	-0.050587
26.700000	0.158935	1198.803199	2.892840	-0.039635
26.800000	0.160169	1199.748402	2.923612	0.081749
26.900000	0.158043	1200.286287	2.904846	0.018570
27.000000	0.161847	1199.169105	2.917622	0.050485
27.100000	0.161028	1200.560434	2.911168	0.018829
27.200000	0.162542	1200.695773	2.906609	0.059115
27.300000	0.167836	1201.698571	2.909353	0.031357
27.400000	0.156357	1199.840341	2.901448	0.023880
27.500000	0.163770	1204.924533	2.877028	-0.082840
27.600000	0.160853	1220.949632	2.877236	-0.119356
27.700000	0.156968	1261.434506	2.873067	-0.069259
27.800000	0.163104	1282.181261	2.883479	-0.163179
27.900000	0.164869	1289.448060	2.903689	-0.007408
28.000000	0.159244	1288.788131	2.941750	0.091674
28.100000	0.156047	1291.286698	2.976686	0.254458
28.200000	0.159640	1298.394887	3.010572	0.395937
28.300000	0.165143	1303.391923	3.025882	0.460557
28.400000	0.165140	1305.127353	3.079743	0.690116
28.500000	0.166139	1303.362636	3.101589	0.879207
28.600000	0.163101	1305.719336	3.130235	0.988332
28.700000	0.169568	1309.643708	3.159660	1.115742
28.800000	0.167779	1315.639154	3.192344	1.212104
28.900000	0.159239	1317.745235	3.236988	1.308334
29.000000	0.164615	1321.596281	3.259188	1.257062
29.100000	0.158090	1324.522493	3.278291	1.179017
29.200000	0.165973	1324.988056	3.304100	1.154134
29.300000	0.159228	1327.715293	3.339191	1.231880
29.400000	0.165982	1329.004260	3.373663	1.159945
29.500000	0.165301	1331.300524	3.400137	1.166232
29.600000	0.165211	1335.350402	3.434379	1.200609
29.700000	0.173046	1339.279254	3.459754	1.182294
29.800000	0.173975	1338.785297	3.486378	1.151232
29.900000	0.159125	1343.079444	3.515523	1.095177
30.000000	0.155210	1345.526562	3.559376	1.174397
30.100000	0.150773	1344.904936	3.569091	1.146143
30.200000	0.150425	1346.061187	3.598966	1.157456
30.300000	0.153918	1350.273336	3.624640	1.126366
30.400000	0.151921	1348.380954	3.663329	1.131613
30.500000	0.150043	1349.232690	3.680872	1.109815
30.600000	0.153593	1355.605139	3.696838	1.032211
30.700000	0.153229	1357.634299	3.738692	1.087732
30.800000	0.147383	1361.635956	3.765553	1.103182
30.900000	0.157291	1358.860739	3.803708	1.132931
31.000000	0.142673	1360.237443	3.841782	1.107845
31.100000	0.149917	1363.668564	3.859869	1.144847
31.200000	0.151222	1368.013203	3.893372	1.154007
31.300000	0.148081	1373.603689	3.928261	1.188316
31.400000	0.150697	1375.998298	3.981197	1.247859
31.500000	0.150138	1376.597445	4.022338	1.337682
31.600000	0.145994	1378.961338	4.070836	1.465492
31.700000	0.150092	1382.442951	4.101169	1.430948
31.800000	0.146194	1383.449268	4.151256	1.506321
31.900000	0.148762	1379.240229	4.169015	1.441029
32.000000	0.149250	1382.278657	4.202446	1.418127
32.100000	0.155130	1384.377543	4.231624	1.458171
32.200000	0.151953	1387.175374	4.255638	1.425662
32.300000	0.151454	1390.551492	4.302773	1.471466
32.400000	0.142474	1387.729108	4.326990	1.356925
32.500000	0.145857	1387.712606	4.369505	1.366533
32.600000	0.148702	1390.862648	4.403283	1.317111
32.700000	0.152013	1392.560057	4.402624	1.176208
32.800000	0.142591	1398.337060	4.461276	1.224016
32.900000	0.145179	1403.357584	4.496601	1.286175
33.000000	0.150044	1398.334070	4.524882	1.267429
33.100000	0.144185	1393.460674	4.555586	1.268785
33.200000	0.150559	1399.742781	4.591771	1.321262
33.300000	0.149249	1404.845448	4.631520	1.292686
33.400000	0.149770	1406.917905	4.649185	1.272199
33.500000	0.152707	1405.490887	4.678354	1.212264
33.600000	0.149645	1406.080346	4.721423	1.238691
33.700000	0.146718	1410.174226	4.757590	1.399288
33.800000	0.142245	1411.766948	4.793481	1.303999
33.900000	0.145034	1415.526226	4.861529	1.423081
34.000000	0.145141	1415.353008	4.887974	1.434645
34.100000	0.144806	1413.942975	4.907695	1.382842
34.200000	0.142471	1412.977811	4.950284	1.409242
34.300000	0.150906	1422.793037	4.985548	1.391647
34.400000	0.145128	1419.838860	5.030235	1.488145
34.500000	0.145766	1418.402959	5.063547	1.513872
34.600000	0.145786	1418.904366	5.113077	1.547302
34.700000	0.149899	1423.892798	5.140816	1.501939
34.800000	0.142062	1423.874445	5.177574	1.514496
34.900000	0.142385	1425.474436	5.222266	1.419118
35.000000	0.153024	1425.440773	5.252174	1.423385
35.100000	0.154809	1427.011658	5.271641	1.431799
35.200000	0.147040	1433.927147	5.320388	1.458603
35.300000	0.148473	1432.010862	5.334214	1.366979
35.400000	0.149411	1433.267350	5.374900	1.360457
35.500000	0.144689	1435.839481	5.417835	1.389747
35.600000	0.146578	1435.195162	5.452809	1.334700
35.700000	0.146143	1434.909825	5.487123	1.366779
35.800000	0.149814	1435.266949	5.512630	1.310588
35.900000	0.148578	1434.938158	5.531447	1.223791
36.000000	0.155142	1438.563869	5.590012	1.318418
36.100000	0.143614	1438.685076	5.619218	1.368245
36.200000	0.152326	1433.061835	5.640522	1.261287
36.300000	0.142407	1436.989172	5.673570	1.330316
36.400000	0.153118	1439.948688	5.704514	1.288539
36.500000	0.155507	1442.787431	5.757338	1.343529
36.600000	0.144631	1441.707006	5.770765	1.248021
36.700000	0.153035	1441.762200	5.796913	1.210400
36.800000	0.150156	1443.069798	5.827036	1.238105
36.900000	0.142929	1441.009594	5.857030	1.281001
37.000000	0.151461	1443.294167	5.891797	1.189748
37.100000	0.146782	1446.206748	5.943901	1.270317
37.200000	0.141240	1446.682793	5.969837	1.292761
37.300000	0.147952	1449.530076	6.007608	1.315765
37.400000	0.150421	1452.403069	6.031612	1.290314
37.500000	0.145079	1451.877696	6.108852	1.372819
37.600000	0.152090	1452.279309	6.128786	1.402575
37.700000	0.146816	1449.032738	6.184478	1.525825
37.800000	0.151216	1444.664461	6.191652	1.435784
37.900000	0.151054	1454.158498	6.227780	1.454680
38.000000	0.145427	1455.066271	6.275106	1.506164
38.100000	0.151331	1459.695374	6.306325	1.427351
38.200000	0.154554	1460.212619	6.329775	1.408767
38.300000	0.148185	1458.307194	6.388382	1.493870
38.400000	0.145933	1458.451436	6.443961	1.616854
38.500000	0.152932	1456.816530	6.498468	1.536878
38.600000	0.142779	1458.397525	6.527372	1.564416
38.700000	0.151694	1460.211587	6.563405	1.487711
38.800000	0.148298	1460.097580	6.595844	1.585380
38.900000	0.152962	1460.084922	6.647375	1.646150
39.000000	0.155619	1462.061218	6.694208	1.646007
39.100000	0.142605	1463.733578	6.752594	1.745275
39.200000	0.141750	1464.857390	6.785658	1.795620
39.300000	0.149003	1463.592946	6.827267	1.724167
39.400000	0.148320	1461.099058	6.856346	1.626082
39.500000	0.149190	1457.080351	6.903147	1.590997
39.600000	0.148365	1455.504773	6.921772	1.554656
39.700000	0.146418	1458.965068	6.973721	1.612031
39.800000	0.147008	1462.515170	7.002941	1.595735
39.900000	0.144754	1464.949902	7.015158	1.447277
40.000000	0.142568	1465.517498	7.071155	1.483486
40.100000	0.152999	1469.064647	7.105280	1.389662
40.200000	0.145959	1465.798707	7.142053	1.396344
40.300000	0.148729	1464.662604	7.185118	1.411612
40.400000	0.150078	1466.803341	7.229143	1.460351
40.500000	0.148941	1462.709595	7.275919	1.468291
40.600000	0.146328	1459.736688	7.302888	1.488404
40.700000	0.159778	1464.714981	7.343503	1.458212
40.800000	0.149622	1466.812963	7.373081	1.453210
40.900000	0.148062	1468.914176	7.416630	1.570771
41.000000	0.148750	1471.330475	7.469934	1.571641
41.100000	0.146023	1466.037741	7.513314	1.602570
41.200000	0.143133	1464.826612	7.541336	1.570765
41.300000	0.149051	1464.707018	7.576075	1.539841
41.400000	0.149001	1463.440138	7.602797	1.466428
41.500000	0.152526	1465.175108	7.641748	1.439989
41.600000	0.139045	1465.280703	7.653847	1.383490
41.700000	0.155786	1464.552933	7.692647	1.364701
41.800000	0.149382	1467.646300	7.741253	1.450570
41.900000	0.150761	1469.490059	7.773504	1.405689
42.000000	0.150418	1467.268112	7.803364	1.308104
42.100000	0.147312	1466.022518	7.836516	1.270386
42.200000	0.148107	1467.902856	7.849811	1.216084
42.300000	0.149690	1467.065009	7.889979	1.227293
42.400000	0.143939	1467.297709	7.920673	1.255328
42.500000	0.144029	1464.944851	7.938042	1.157270
42.600000	0.144009	1466.575886	7.980082	1.280401
42.700000	0.146722	1468.880234	8.012670	1.267259
42.800000	0.151224	1467.951846	8.044074	1.186073
42.900000	0.149144	1467.020524	8.088489	1.234013
43.000000	0.146537	1468.280084	8.101295	1.178851
43.100000	0.148891	1467.769448	8.129729	1.151466
43.200000	0.146789	1468.083691	8.188854	1.326337
43.300000	0.149068	1466.933413	8.223503	1.315491
43.400000	0.149177	1465.050774	8.246615	1.275067
43.500000	0.148767	1467.400187	8.295827	1.409363
43.600000	0.155134	1466.789899	8.330755	1.379947
43.700000	0.150603	1469.022158	8.355874	1.337803
43.800000	0.148626	1462.830956	8.375730	1.310240
43.900000	0.151573	1464.043803	8.403084	1.238262
44.000000	0.154063	1465.927836	8.424666	1.270651
44.100000	0.157230	1470.464358	8.444030	1.228965
44.200000	0.153187	1468.343800	8.516193	1.292222
44.300000	0.142451	1465.579333	8.534048	1.219367
44.400000	0.147142	1466.130993	8.590079	1.346202
44.500000	0.151979	1468.566146	8.588296	1.152502
44.600000	0.150689	1470.434921	8.639483	1.210438
44.700000	0.148653	1466.800922	8.674586	1.252939
44.800000	0.149985	1466.623696	8.730693	1.389829
44.900000	0.146630	1468.451797	8.753810	1.377418
45.000000	0.148942	1465.288431	8.801189	1.473744
45.100000	0.146380	1466.228859	8.829555	1.522279
45.200000	0.146153	1464.848277	8.870967	1.391952
45.300000	0.141719	1467.185583	8.903658	1.451617
45.400000	0.143442	1470.005175	8.922625	1.314381
45.500000	0.157473	1470.646815	8.986338	1.547007
45.600000	0.147547	1469.158800	9.066387	1.686673
45.700000	0.148536	1468.568915	9.079046	1.589974
45.800000	0.142192	1465.945633	9.103520	1.466365
45.900000	0.152110	1465.703945	9.138405	1.513021
46.000000	0.150746	1463.941426	9.188183	1.520154
46.100000	0.145335	1468.219954	9.206788	1.482491
46.200000	0.147908	1466.962633	9.227523	1.402216
46.300000	0.150378	1466.868316	9.273845	1.448183
46.400000	0.144248	1466.583532	9.333407	1.605448
46.500000	0.134896	1467.516175	9.364734	1.505637
46.600000	0.145101	1462.743507	9.402593	1.316342
46.700000	0.145806	1465.560591	9.444408	1.434125
46.800000	0.146761	1463.098303	9.481814	1.483209
46.900000	0.141256	1463.561256	9.521890	1.505101
47.000000	0.150998	1460.495686	9.551091	1.434820
47.100000	0.146464	1460.915475	9.590368	1.498999
47.200000	0.144727	1460.422754	9.604980	1.481419
47.300000	0.148680	1461.728999	9.648301	1.477932
47.400000	0.146152	1463.338628	9.691461	1.417032
47.500000	0.158080	1460.792546	9.731487	1.429140
47.600000	0.140961	1462.481502	9.737509	1.317263
47.700000	0.146742	1461.228139	9.800963	1.407409
47.800000	0.146222	1462.239461	9.828332	1.357249
47.900000	0.137234	1461.941793	9.850978	1.293802
48.000000	0.146744	1463.353086	9.895639	1.341801
48.100000	0.148859	1458.346346	9.934835	1.368302
48.200000	0.147468	1459.195051	9.958556	1.381664
48.300000	0.144515	1462.104582	10.001905	1.389386
48.400000	0.145766	1458.615821	10.044734	1.382863
48.500000	0.151186	1457.306844	10.093625	1.428364
48.600000	0.147102	1456.464405	10.125807	1.525719
48.700000	0.149503	1458.780406	10.131065	1.299245
48.800000	0.152632	1458.706085	10.185010	1.401236
48.900000	0.148556	1453.509674	10.199160	1.369961
49.000000	0.145006	1455.456697	10.236603	1.348210
49.100000	0.149570	1455.846412	10.272631	1.318295
49.200000	0.147373	1453.967489	10.296680	1.325438
49.300000	0.152610	1450.859398	10.359915	1.409294
49.400000	0.151511	1452.671429	10.389722	1.354690
49.500000	0.142586	1451.056435	10.425475	1.307155
49.600000	0.151333	1451.248453	10.480733	1.390633
49.700000	0.153548	1453.049058	10.523942	1.541052
49.800000	0.140818	1447.030270	10.526875	1.344585
49.900000	0.141921	1447.696418	10.559419	1.418192
50.000000	0.148394	1449.008541	10.607147	1.453294
50.100000	0.143603	1448.014648	10.643002	1.452873
50.200000	0.155923	1443.174931	10.666286	1.455366
50.300000	0.151876	1442.151086	10.703693	1.357040
50.400000	0.146094	1438.809936	10.726739	1.328719
50.500000	0.151033	1435.390204	10.735596	1.217263
50.600000	0.148044	1435.216206	10.774254	1.152618
50.700000	0.145460	1434.749113	10.786694	1.033803
50.800000	0.150198	1437.900757	10.828475	1.190205
50.900000	0.147442	1432.298583	10.847257	1.127882
51.000000	0.146938	1431.059118	10.884722	1.094862
51.100000	0.153822	1430.160238	10.922314	1.093617
51.200000	0.151132	1427.416661	10.953025	1.127487
51.300000	0.156449	1421.163676	10.990002	1.118465
51.400000	0.152568	1413.015445	11.049621	1.266247
51.500000	0.157597	1405.699194	11.067897	1.308658
51.600000	0.145226	1400.007022	11.104176	1.291875
51.700000	0.145149	1394.766067	11.155370	1.448317
51.800000	0.147389	1385.029155	11.185454	1.396759
51.900000	0.144422	1371.619489	11.246265	1.564189
52.000000	0.147564	1361.186540	11.302009	1.636174
52.100000	0.147400	1342.463319	11.324079	1.588001
52.200000	0.141801	1317.291618	11.351439	1.559806
52.300000	0.147641	1294.281609	11.399097	1.615066
52.400000	0.143027	1267.942955	11.436393	1.517918
52.500000	0.149652	1245.394319	11.469512	1.577318
52.600000	0.156165	1218.041485	11.518232	1.622654
52.700000	0.147684	1178.076759	11.576896	1.657814
52.800000	0.146152	1129.616597	11.620212	1.706140
52.900000	0.151454	1057.798653	11.681937	1.711681
53.000000	0.142308	441.273520	12.177561	3.351058
53.100000	0.143335	-7.157454	12.504743	4.625464
53.200000	0.152127	-8.259823	12.581237	4.833703
53.300000	0.152127	-9.745505	12.581977	4.641931
53.400000	0.152717	-7.498228	12.592884	4.548022
53.500000	0.145490	-7.704883	12.603999	4.453559
53.600000	0.150421	-9.641812	12.607227	4.288389
53.700000	0.152300	-9.141437	12.600648	4.022637
53.800000	0.144083	-8.463832	12.615137	3.916014
53.900000	0.150386	-10.565350	12.611290	3.661728
54.000000	0.150733	-6.978860	12.594239	1.762097
54.100000	0.150132	-7.857192	12.586186	0.333268
54.200000	0.149379	-10.350236	12.598034	0.065128
54.300000	0.151185	-7.213439	12.601250	0.077907
54.400000	0.158904	-7.993360	12.598660	0.026154
54.500000	0.156624	-9.355117	12.619172	0.063955
