LabVIEW Measurement	
Writer_Version	2
Reader_Version	2
Separator	Tab
Decimal_Separator	.
Multi_Headings	No
X_Columns	One
Time_Pref	Absolute
Operator	tlstroud
Date	2022/03/22
Time	13:45:24.8577084541320800781
***End_of_Header***	
	
Notes	X values guaranteed valid only for Extensometer Displacement-mm (Mean)				
Channels	4				
Samples	1	1	1	1	
Date	2022/03/22	2022/03/22	2022/03/22	2022/03/22	
Time	13:45:24.8577084541320800781	13:45:24.8577084541320800781	13:45:24.8577084541320800781	13:45:24.861660003662109375	
Y_Unit_Label	Volts	Volts	Volts	Volts	
X_Dimension	Time	Time	Time	Time	
X0	0.0000000000000000E+0	0.0000000000000000E+0	0.0000000000000000E+0	9.9000000000000005E-2	
Delta_X	0.100000	0.100000	0.100000	0.100000	
***End_of_Header***					
X_Value	Extensometer Displacement-mm (Mean)	Force-N (Mean)	Global Displacement-mm (Mean)	Global Displacement-mm (Mean) 1	Comment
0.000000	-0.006432	-1.997160	0.020596	0.094596
0.100000	-0.001982	0.502362	0.017569	0.012763
0.200000	0.000447	-0.471030	0.025281	0.018115
0.300000	0.002050	1.608044	0.004445	0.023810
0.400000	0.003113	1.024545	-0.001269	0.036653
0.500000	-0.001677	0.936815	0.001498	0.032540
0.600000	-0.001914	0.918572	-0.001437	0.011788
0.700000	-0.003793	1.368691	0.005758	0.028215
0.800000	0.001158	0.071639	0.015517	0.046022
0.900000	-0.011758	0.982653	-0.001528	0.021788
1.000000	-0.004567	1.108021	-0.005742	-0.075433
1.100000	-0.000438	6.616479	-0.002563	-0.060078
1.200000	0.002232	5.027579	-0.002964	-0.084944
1.300000	0.005588	5.808009	-0.000206	-0.017236
1.400000	-0.002397	6.498006	-0.003679	-0.009416
1.500000	-0.004280	5.803959	-0.001047	-0.004533
1.600000	-0.013080	4.027691	-0.000962	0.001733
1.700000	0.002506	7.959243	-0.003289	-0.028913
1.800000	-0.004657	5.982070	0.015360	-0.003486
1.900000	-0.001481	6.518089	-0.009799	-0.025756
2.000000	0.003186	7.042805	0.010106	0.048048
2.100000	-0.008417	12.536494	0.020048	0.069018
2.200000	-0.008477	16.309116	0.023927	0.076948
2.300000	0.003862	4.652780	0.060352	0.178309
2.400000	-0.003171	2.484168	0.062918	0.199709
2.500000	0.002387	3.883120	0.072085	0.218828
2.600000	0.006814	4.479167	0.078229	0.234360
2.700000	0.001019	8.830034	0.078966	0.247846
2.800000	-0.004026	24.506772	0.074488	0.179438
2.900000	0.005834	35.025025	0.073129	0.243263
3.000000	-0.005301	44.797442	0.078217	0.204982
3.100000	0.002757	58.620703	0.089311	0.206947
3.200000	0.001618	73.184260	0.096538	0.220027
3.300000	0.000341	89.573370	0.112151	0.156429
3.400000	0.004865	102.711152	0.122196	0.177420
3.500000	0.000674	121.227961	0.140066	0.201291
3.600000	0.001480	138.475830	0.157043	0.233718
3.700000	0.000540	160.540701	0.178513	0.299880
3.800000	0.004113	184.653923	0.221713	0.431613
3.900000	0.010288	208.737553	0.251874	0.532310
4.000000	0.009228	228.597445	0.280655	0.606349
4.100000	0.014382	251.868769	0.315469	0.671052
4.200000	0.011085	274.819337	0.336382	0.716212
4.300000	0.012824	300.461210	0.395534	0.845431
4.400000	0.020276	323.169153	0.425951	0.903710
4.500000	0.029181	355.339689	0.456334	0.944698
4.600000	0.018243	386.545197	0.479020	0.958225
4.700000	0.019435	414.245653	0.525302	1.034754
4.800000	0.018634	441.190311	0.529020	0.924080
4.900000	0.029347	472.808664	0.572454	0.959160
5.000000	0.024389	506.728573	0.616448	0.998052
5.100000	0.033963	538.278438	0.652013	1.012468
5.200000	0.030894	571.562865	0.688711	1.051886
5.300000	0.049338	600.968576	0.708614	0.936723
5.400000	0.045187	628.242483	0.757442	0.994385
5.500000	0.050137	656.426993	0.774648	0.952121
5.600000	0.044821	682.709012	0.805201	0.981820
5.700000	0.050185	711.815853	0.839328	0.935901
5.800000	0.057485	745.746912	0.864124	0.997663
5.900000	0.061210	781.585232	0.920908	1.044897
6.000000	0.063403	821.164967	0.972716	1.064296
6.100000	0.072803	858.896946	0.995310	1.029017
6.200000	0.075630	889.766593	1.031849	1.026487
6.300000	0.076530	919.607829	1.066222	1.066791
6.400000	0.080678	951.661992	1.087276	0.989320
6.500000	0.084352	985.413356	1.110317	1.003016
6.600000	0.088910	1014.956719	1.148894	1.022931
6.700000	0.096541	1049.945303	1.166765	0.983565
6.800000	0.096756	1088.406413	1.192954	0.987320
6.900000	0.105108	1124.703042	1.240124	0.952990
7.000000	0.115214	1155.745590	1.261474	0.870534
7.100000	0.115807	1183.369847	1.296324	0.895172
7.200000	0.126619	1209.046775	1.327035	0.882674
7.300000	0.150111	1214.388711	1.385419	0.952829
7.400000	0.174885	1216.362749	1.403268	0.946910
7.500000	0.207023	1221.890339	1.432602	0.964536
7.600000	0.237007	1229.246043	1.437682	0.862775
7.700000	0.260332	1234.480782	1.486397	0.954494
7.800000	0.287890	1239.149002	1.535186	1.021687
7.900000	0.323558	1244.103208	1.553726	0.943029
8.000000	0.342946	1246.964807	1.589501	0.979320
8.100000	0.357898	1251.892519	1.627076	0.988593
8.200000	0.388866	1255.174979	1.648000	0.960777
8.300000	0.413865	1261.278939	1.679206	0.886667
8.400000	0.439077	1265.926145	1.697867	0.875560
8.500000	0.458079	1272.412197	1.715267	0.849459
8.600000	0.483090	1276.786319	1.749301	0.928543
8.700000	0.517058	1278.824596	1.809180	0.965399
8.800000	0.539271	1285.474311	1.843623	0.924866
8.900000	0.561145	1287.132995	1.860781	0.916931
9.000000	0.587016	1291.142534	1.895103	0.909873
9.100000	0.600154	1297.653172	1.950291	0.973489
9.200000	0.625978	1298.843598	1.951009	0.904282
9.300000	0.657454	1301.465081	2.004351	0.969366
9.400000	0.676451	1301.445728	2.035014	1.010104
9.500000	0.697472	1306.258082	2.051726	1.003134
9.600000	0.713997	1310.464787	2.096357	1.040112
9.700000	0.734515	1314.927502	2.098823	0.873205
9.800000	0.754186	1318.855434	2.118230	0.819254
9.900000	0.783164	1323.507896	2.167157	0.916512
10.000000	0.802230	1322.639180	2.202864	0.917569
10.100000	0.827516	1327.814125	2.230385	0.837730
10.200000	0.850854	1326.409187	2.251515	0.899376
10.300000	0.862391	1330.052237	2.278714	0.825658
10.400000	0.891541	1333.121148	2.316326	0.838978
10.500000	0.908739	1335.672694	2.343091	0.871662
10.600000	0.927136	1338.270059	2.355311	0.775785
10.700000	0.947899	1339.266232	2.393241	0.874705
10.800000	0.971495	1340.831554	2.421408	0.904498
10.900000	0.985548	1345.928856	2.463269	0.890829
11.000000	1.017723	1346.014531	2.486143	0.850383
11.100000	1.027254	1345.952952	2.515591	0.848451
11.200000	1.046866	1347.284155	2.561651	0.926159
11.300000	1.075449	1351.079900	2.560308	0.845362
11.400000	1.094310	1351.727022	2.608244	0.870600
11.500000	1.110300	1351.472639	2.654628	0.932833
11.600000	1.128065	1354.004828	2.668698	0.941298
11.700000	1.140890	1356.250078	2.682995	0.868602
11.800000	1.166480	1360.455626	2.731126	0.925805
11.900000	1.196114	1362.312918	2.775426	0.927206
12.000000	1.222078	1363.681480	2.795881	0.928635
12.100000	1.236518	1365.498809	2.842911	0.982065
12.200000	1.259604	1365.088919	2.882286	0.958539
12.300000	1.289904	1365.576712	2.898911	1.005448
12.400000	1.312578	1369.417401	2.929529	0.968202
12.500000	1.340721	1369.125701	2.966622	0.932576
12.600000	1.358499	1370.471850	3.002651	0.992085
12.700000	1.380178	1373.317936	3.028568	1.034601
12.800000	1.410925	1375.142868	3.073441	1.029319
12.900000	1.440375	1375.919530	3.100914	0.969701
13.000000	1.459731	1377.166109	3.144617	1.045146
13.100000	1.491630	1375.036794	3.176314	0.995687
13.200000	1.513691	1375.301415	3.214120	0.994993
13.300000	1.549802	1377.718321	3.245754	1.035872
13.400000	1.580680	1380.129965	3.279809	1.043953
13.500000	1.603209	1381.149533	3.319147	1.057270
13.600000	1.629857	1375.731917	3.329922	0.983192
13.700000	1.636759	1375.972142	3.369612	1.018439
13.800000	1.672037	1376.111665	3.392102	0.950329
13.900000	1.688531	1379.929187	3.451354	1.052426
14.000000	1.716442	1382.381110	3.450526	0.918765
14.100000	1.743471	1383.538153	3.499043	0.963804
14.200000	1.772249	1380.937372	3.522292	0.919510
14.300000	1.801188	1381.231407	3.576522	0.989922
14.400000	1.831924	1380.243291	3.599067	0.958039
14.500000	1.859612	1378.009894	3.631001	0.929187
14.600000	1.890315	1376.189725	3.640956	0.928903
14.700000	1.909916	1371.835477	3.682605	0.936411
14.800000	1.916713	1371.765669	3.708559	0.946822
14.900000	1.946378	1369.579668	3.714267	0.793452
15.000000	1.982602	1368.767101	3.759037	0.913931
15.100000	2.008431	1358.307371	3.799232	0.900608
15.200000	2.052460	1342.450576	3.821139	0.896256
15.300000	2.072009	1323.344453	3.852854	0.831983
15.400000	2.083318	1303.575342	3.855587	0.770765
15.500000	2.088818	1295.908491	3.892825	0.778051
15.600000	2.089785	1291.200871	3.925750	0.848925
15.700000	2.088577	1286.717956	3.945985	0.789702
15.800000	2.091482	1285.190860	3.938272	0.692691
15.900000	2.090882	1283.181424	3.948191	0.698494
16.000000	2.091149	1281.433305	3.939159	0.543337
16.100000	2.085483	1281.446134	3.943080	0.438933
16.200000	2.088767	1278.940958	3.944578	0.367291
16.300000	2.097368	1281.015673	3.938361	0.255548
16.400000	2.093296	1277.946196	3.932629	0.232893
16.500000	2.105268	1278.492661	3.941195	0.154944
16.600000	2.100601	1274.715513	3.943024	0.048935
16.700000	2.100723	1276.847047	3.954979	0.034332
16.800000	2.156229	1273.789794	3.952693	0.038571
16.900000	2.202352	1273.797530	3.938175	-0.028243
17.000000	2.108653	1273.885268	3.931475	-0.017407
17.100000	1.842701	1273.836090	3.944308	-0.004300
17.200000	1.425272	1274.246742	3.948040	0.017229
17.300000	0.908089	1272.114691	3.944566	0.012878
17.400000	1.065815	1271.787753	3.951446	0.052456
17.500000	1.126270	1271.825267	3.959290	0.053619
17.600000	1.062022	1270.200092	3.951066	0.031938
17.700000	0.812475	1272.723960	3.958545	0.007596
17.800000	0.902609	1271.274338	3.948177	-0.011373
17.900000	1.145159	1270.544960	3.958201	0.057855
18.000000	2.303595	1269.839383	3.939882	0.022727
18.100000	4.704415	1269.481670	3.964696	0.069138
18.200000	2.779283	1269.658263	3.941610	-0.030546
18.300000	1.768625	1269.831017	3.968668	0.079851
18.400000	1.229644	1269.037767	3.944296	-0.020719
18.500000	0.311777	1270.183783	3.965852	0.018307
18.600000	0.073592	1269.204946	3.955615	0.012574
18.700000	0.857818	1284.045022	3.941659	-0.053405
18.800000	1.330028	1310.108339	3.953096	0.018248
18.900000	0.960397	1304.797263	3.956617	-0.010028
19.000000	0.882672	1281.998153	3.973557	0.102209
19.100000	0.894537	1252.051249	3.991515	0.073761
19.200000	0.881390	1212.284902	4.007721	0.203493
19.300000	0.914691	1160.534172	4.054860	0.247192
19.400000	0.925341	866.511857	4.100602	0.471908
19.500000	0.913961	-7.027913	4.019261	0.154673
19.600000	0.916405	-9.524935	4.143957	0.558372
19.700000	0.921766	-9.643525	4.143388	0.607835
19.800000	0.919136	-8.196581	4.137950	0.547756
19.900000	0.921491	-11.109811	4.144021	0.565391
20.000000	0.921882	-9.961632	4.132472	0.477079
20.100000	0.916302	-12.107236	4.127891	0.402591
20.200000	0.915262	-10.586409	4.156781	0.448492
20.300000	0.915038	-12.653926	4.144627	0.275090
20.400000	0.912982	-11.442414	4.149018	0.144890
20.500000	0.915762	-8.792219	4.153153	0.407133
20.600000	0.914740	-10.284845	4.160111	0.050352
20.700000	0.920669	-9.992806	4.200799	0.190077
20.800000	0.917481	-12.146508	2.726952	-4.043888
20.900000	0.924531	-9.760069	1.981275	-6.449285
21.000000	0.919839	-11.570160	1.942170	-6.551350
21.100000	0.920728	-10.108883	1.969952	-6.444301
21.200000	0.917649	-11.641980	1.981518	-6.504238
