LabVIEW Measurement	
Writer_Version	2
Reader_Version	2
Separator	Tab
Decimal_Separator	.
Multi_Headings	No
X_Columns	One
Time_Pref	Absolute
Operator	tlstroud
Date	2022/03/22
Time	13:30:56.2354955673217773438
***End_of_Header***	
	
Notes	X values guaranteed valid only for Extensometer Displacement-mm (Mean)				
Channels	4				
Samples	1	1	1	1	
Date	2022/03/22	2022/03/22	2022/03/22	2022/03/22	
Time	13:30:56.2354955673217773438	13:30:56.2354955673217773438	13:30:56.2354955673217773438	13:30:56.2357888221740722656	
Y_Unit_Label	Volts	Volts	Volts	Volts	
X_Dimension	Time	Time	Time	Time	
X0	0.0000000000000000E+0	0.0000000000000000E+0	0.0000000000000000E+0	9.9000000000000005E-2	
Delta_X	0.100000	0.100000	0.100000	0.100000	
***End_of_Header***					
X_Value	Extensometer Displacement-mm (Mean)	Force-N (Mean)	Global Displacement-mm (Mean)	Global Displacement-mm (Mean) 1	Comment
0.000000	-0.000630	0.411592	-0.009132	0.007103
0.100000	-0.006546	1.047840	-0.009553	0.002131
0.200000	-0.009643	0.712337	-0.003943	0.004523
0.300000	-0.007273	0.443401	-0.003052	-0.033386
0.400000	-0.004680	1.507106	-0.008842	-0.029824
0.500000	-0.002382	1.178764	-0.015651	-0.020244
0.600000	-0.006031	1.107927	-0.016228	-0.061138
0.700000	-0.008124	-0.456445	-0.003143	-0.013512
0.800000	-0.009369	-0.090883	-0.011452	0.008802
0.900000	-0.004790	1.545791	-0.013442	-0.036291
1.000000	-0.002088	5.388769	-0.004330	0.010803
1.100000	0.001118	5.515728	-0.026284	-0.043525
1.200000	-0.002310	7.776077	-0.004784	-0.005627
1.300000	0.000895	6.442767	0.014077	0.049291
1.400000	-0.010249	9.006358	0.018111	0.073789
1.500000	-0.010966	6.762688	0.018338	0.096110
1.600000	-0.008452	8.421240	0.060753	0.221037
1.700000	-0.012760	11.772171	0.079717	0.241848
1.800000	-0.011341	11.431020	0.125831	0.388658
1.900000	-0.011580	11.162412	0.181069	0.551995
2.000000	-0.008291	2.596214	0.193391	0.576369
2.100000	-0.014625	4.274340	0.211288	0.675257
2.200000	-0.016030	3.326032	0.206690	0.614620
2.300000	-0.010505	6.391868	0.192957	0.519873
2.400000	-0.009478	9.495721	0.213848	0.567780
2.500000	-0.012745	11.464206	0.207779	0.545836
2.600000	-0.018218	11.807816	0.228133	0.486322
2.700000	-0.006361	14.059823	0.246627	0.480798
2.800000	-0.013048	13.988853	0.300725	0.501509
2.900000	-0.017941	17.661869	0.387093	0.595409
3.000000	-0.010300	23.901577	0.436985	0.696693
3.100000	-0.012534	38.331086	0.468808	0.744153
3.200000	-0.003550	53.846932	0.486382	0.808092
3.300000	-0.013860	72.082418	0.512156	0.921120
3.400000	-0.013824	88.965720	0.527485	0.898177
3.500000	-0.001630	107.264981	0.576088	1.062797
3.600000	-0.005153	124.062229	0.591217	1.044848
3.700000	-0.002882	146.699377	0.658295	1.185322
3.800000	-0.013554	166.360969	0.692147	1.133484
3.900000	-0.008016	190.552955	0.744139	1.035248
4.000000	0.003140	209.063282	0.747373	0.899995
4.100000	-0.011118	226.369446	0.803965	0.966308
4.200000	0.004730	245.606091	0.838253	1.007163
4.300000	0.003630	270.684517	0.871724	1.037517
4.400000	0.012778	297.079409	0.920540	1.134241
4.500000	0.005108	322.561008	0.950885	1.086202
4.600000	0.008824	346.497971	0.981156	1.121678
4.700000	0.010826	371.736248	1.012968	1.026790
4.800000	0.014616	397.479617	1.050710	1.040833
4.900000	0.008609	420.205153	1.080141	0.971456
5.000000	0.017371	443.639086	1.121242	1.073957
5.100000	0.018543	470.217346	1.158955	1.027122
5.200000	0.016903	496.099813	1.193520	1.029198
5.300000	0.030254	522.411846	1.231010	1.035117
5.400000	0.032064	551.725291	1.260874	0.983986
5.500000	0.044189	583.738866	1.279675	0.948272
5.600000	0.035968	615.189499	1.327178	1.001439
5.700000	0.037421	642.027277	1.364572	1.015038
5.800000	0.045854	668.434519	1.383724	0.964858
5.900000	0.042965	695.056436	1.416013	0.965265
6.000000	0.055356	724.642064	1.439553	0.922330
6.100000	0.052757	755.797237	1.463836	0.885449
6.200000	0.058363	788.173189	1.500997	0.883616
6.300000	0.057035	816.558719	1.545549	0.909889
6.400000	0.056004	846.701242	1.575556	0.906744
6.500000	0.061260	878.543662	1.621181	0.985631
6.600000	0.074320	900.591373	1.649067	0.932745
6.700000	0.071982	924.753074	1.676862	0.898954
6.800000	0.073897	950.798958	1.685588	0.870292
6.900000	0.080550	983.885772	1.724325	0.894517
7.000000	0.083161	1010.050972	1.764783	0.933973
7.100000	0.081103	1041.450228	1.798726	0.967815
7.200000	0.088819	1070.938577	1.840766	0.982422
7.300000	0.094964	1098.425493	1.864288	0.920343
7.400000	0.092668	1128.138714	1.890306	0.911713
7.500000	0.102375	1151.005117	1.927261	0.881785
7.600000	0.105898	1179.772978	1.939541	0.836615
7.700000	0.102590	1213.938894	1.987685	0.902391
7.800000	0.111391	1246.812248	2.019223	0.959469
7.900000	0.118487	1278.741177	2.041890	0.919033
8.000000	0.128827	1307.160936	2.089025	0.937854
8.100000	0.126935	1338.178945	2.144071	0.991995
8.200000	0.136097	1365.229745	2.162496	0.929628
8.300000	0.136156	1391.021256	2.177241	0.905415
8.400000	0.149290	1409.804353	2.211906	0.929310
8.500000	0.152849	1437.560973	2.253468	0.941948
8.600000	0.156881	1468.459081	2.285440	1.000849
8.700000	0.167701	1503.943140	2.318106	0.949597
8.800000	0.181436	1535.191728	2.357008	0.973923
8.900000	0.183075	1557.502643	2.376234	0.967106
9.000000	0.192030	1577.939259	2.403026	0.909506
9.100000	0.195136	1603.201990	2.438683	0.852479
9.200000	0.209517	1629.069232	2.487009	0.935678
9.300000	0.207478	1650.412484	2.504401	0.946796
9.400000	0.221402	1671.524608	2.538404	0.941382
9.500000	0.232299	1696.274473	2.576256	0.930975
9.600000	0.250537	1724.666140	2.606796	0.926850
9.700000	0.256073	1750.182136	2.639205	0.925182
9.800000	0.260476	1768.959960	2.671408	0.909595
9.900000	0.263062	1791.278077	2.692400	0.914277
10.000000	0.291745	1804.864555	2.733266	0.952072
10.100000	0.307358	1828.454589	2.743408	0.883415
10.200000	0.315710	1844.921023	2.811287	0.932673
10.300000	0.334820	1858.115269	2.816096	0.899193
10.400000	0.350263	1872.123896	2.840081	0.874143
10.500000	0.352304	1888.169395	2.864494	0.832662
10.600000	0.375900	1910.298346	2.901279	0.850214
10.700000	0.391364	1919.541352	2.935901	0.861810
10.800000	0.412253	1933.985113	2.944109	0.790397
10.900000	0.430518	1944.669829	2.972351	0.801634
11.000000	0.456619	1961.136870	3.009143	0.797728
11.100000	0.487272	1975.205548	3.053557	0.893990
11.200000	0.493870	1982.498186	3.075209	0.767053
11.300000	0.508865	1992.515729	3.095835	0.806105
11.400000	0.531184	2005.237016	3.141563	0.868868
11.500000	0.554108	2016.010040	3.174582	0.892382
11.600000	0.575699	2022.379631	3.224199	0.933677
11.700000	0.598470	2029.566681	3.260354	0.938659
11.800000	0.625180	2038.709003	3.263619	0.917383
11.900000	0.644676	2044.644611	3.306797	0.967090
12.000000	0.663444	2052.907406	3.350360	0.985131
12.100000	0.691456	2051.348855	3.362316	0.895949
12.200000	0.706189	2061.296167	3.393660	0.914981
12.300000	0.725046	2065.617431	3.424688	0.949128
12.400000	0.749324	2071.517232	3.445237	0.876339
12.500000	0.785054	2077.088384	3.480737	0.892600
12.600000	0.820184	2082.769068	3.529042	0.876576
12.700000	0.840783	2088.621427	3.571518	0.894532
12.800000	0.875836	2085.858610	3.603805	0.981758
12.900000	0.901787	2088.052892	3.642918	0.973744
13.000000	0.928089	2088.324840	3.659496	0.889842
13.100000	0.946227	2091.085912	3.697777	0.966865
13.200000	0.963934	2096.937931	3.740289	1.001298
13.300000	1.005061	2096.931555	3.758596	0.965896
13.400000	1.022461	2102.313512	3.790241	0.996927
13.500000	1.060941	2101.926900	3.830044	1.003072
13.600000	1.088629	2096.608766	3.856024	0.948797
13.700000	1.117320	2092.380341	3.899197	0.946485
13.800000	1.146172	2088.090977	3.938370	0.966211
13.900000	1.175323	2087.558033	3.957288	0.909491
14.000000	1.206109	2078.746348	3.997780	0.973636
14.100000	1.233537	2050.101121	4.033573	0.972329
14.200000	1.230575	2031.201203	4.052963	0.901972
14.300000	1.232395	2022.570959	4.131732	1.075276
14.400000	1.236140	2019.830484	4.152794	1.043023
14.500000	1.238838	2016.133126	4.184460	1.027476
14.600000	1.238872	2011.115738	4.170328	0.913155
14.700000	1.247332	2009.890078	4.177118	0.807749
14.800000	1.245285	2010.526866	4.185525	0.713935
14.900000	1.237878	2008.146037	4.159200	0.587236
15.000000	1.233903	2007.763324	4.172574	0.517021
15.100000	1.248100	2005.382740	4.179247	0.418935
15.200000	1.231825	2004.723492	4.167595	0.333816
15.300000	1.226783	2002.870048	4.202338	0.208640
15.400000	1.234538	2002.638896	4.176465	0.073218
15.500000	1.303766	2001.598656	4.182551	-0.005605
15.600000	1.345947	2004.167590	4.197760	0.073451
15.700000	1.265675	2002.872916	4.175948	-0.002911
15.800000	0.938317	2000.931251	4.181755	-0.005618
15.900000	0.568638	2000.041741	4.194499	0.096629
16.000000	-0.194575	1999.045417	4.193098	0.055332
16.100000	-0.452412	1999.840299	4.171846	-0.016749
16.200000	-0.359067	1999.106752	4.179833	0.038407
16.300000	-0.926549	1997.941394	4.180751	-0.065496
16.400000	-1.367455	1999.308520	4.185310	0.030488
16.500000	-1.922175	2000.000736	4.184568	0.007392
16.600000	-2.254662	1996.091521	4.200040	0.005220
16.700000	-2.016497	1996.433712	4.184056	0.017843
16.800000	0.543258	1997.845496	4.195156	0.044598
16.900000	0.991155	1995.358996	4.183580	-0.031239
17.000000	1.505317	1999.042530	4.188056	-0.017440
17.100000	1.295950	1996.951643	4.204546	0.092419
17.200000	1.417578	1998.351502	4.179015	-0.001159
17.300000	1.479050	1996.983608	4.196918	0.048095
17.400000	1.463137	1996.417776	4.208723	0.062133
17.500000	1.173366	1993.928882	4.204026	0.063340
17.600000	0.870334	1995.737261	4.190227	-0.029775
17.700000	0.724499	1996.676385	4.185384	0.007448
17.800000	0.966556	2000.794700	4.184144	-0.038678
17.900000	0.999929	2031.754035	4.172964	-0.027206
18.000000	0.956299	2071.333095	4.175409	-0.034703
18.100000	0.949252	2038.013656	4.188159	-0.051193
18.200000	0.956754	1992.595709	4.225906	0.130420
18.300000	0.962709	1932.477364	4.281792	0.242833
18.400000	0.953707	1869.265207	4.306583	0.280539
18.500000	0.961938	1415.533912	4.369988	0.464430
18.600000	0.964538	-8.116738	4.346289	0.459432
18.700000	0.966926	-8.461922	4.334379	0.428538
18.800000	0.973002	-10.538991	4.342473	0.460082
18.900000	0.964756	-9.190150	4.331825	0.456212
19.000000	0.969514	-10.001075	4.354484	0.516553
19.100000	0.966765	-9.900526	4.342795	0.449006
19.200000	0.969512	-11.484505	4.337633	0.329798
19.300000	0.964564	-8.321658	4.331936	0.150553
19.400000	0.962826	-10.880341	4.337016	0.091473
19.500000	0.963969	-11.826431	4.346724	-0.054357
19.600000	0.958424	-11.418876	4.331491	-0.053688
19.700000	0.963494	-9.647155	4.342228	0.020370
19.800000	0.962938	-11.186648	4.335140	-0.020112
19.900000	0.968348	-10.615902	4.350386	0.051019
20.000000	0.964083	-9.896501	4.343641	-0.029385
20.100000	0.970620	-9.596486	4.320924	-0.062965
20.200000	0.969953	-9.946199	4.340056	0.005896
20.300000	0.962899	-10.985900	4.354542	0.066799
20.400000	0.965399	-11.336840	4.293171	-0.125059
20.500000	0.960648	-10.384077	4.278287	-0.192348
20.600000	0.970204	-10.228759	4.213919	-0.329910
20.700000	0.969383	-10.892694	4.033253	-0.873522
20.800000	0.962773	-8.064614	3.905346	-1.235605
20.900000	0.972545	-8.637333	3.879724	-1.352977
21.000000	0.972000	-10.766306	3.865485	-1.378045
21.100000	0.964104	-11.490668	3.636107	-1.930611
21.200000	0.969082	-9.130816	3.200381	-3.271528
21.300000	0.977651	-12.779897	3.130402	-3.526005
21.400000	0.974847	-8.485919	2.850999	-4.121675
21.500000	0.972600	-10.860669	2.606031	-4.831862
21.600000	0.972844	-11.640276	2.573545	-4.732970
21.700000	0.979322	-9.619959	2.519742	-4.390075
21.800000	0.962735	-9.372385	2.571035	-3.861434
21.900000	0.976261	-10.125309	2.542078	-3.860238
22.000000	0.964504	-10.171870	2.573865	-3.730253
22.100000	0.970941	-11.967047	2.581353	-3.103760
22.200000	0.970317	-11.033867	2.619899	-1.702766
22.300000	0.978435	-10.137227	2.740965	-1.150221
22.400000	0.973470	-11.042768	2.988009	0.317965
22.500000	0.966839	-11.113193	3.114771	1.466810
22.600000	0.973769	-10.569651	3.087545	1.473591
22.700000	0.974008	-10.971842	3.101231	1.678197
22.800000	0.971125	-9.445161	3.098571	1.526562
