LabVIEW Measurement	
Writer_Version	2
Reader_Version	2
Separator	Tab
Decimal_Separator	.
Multi_Headings	No
X_Columns	One
Time_Pref	Absolute
Operator	tlstroud
Date	2022/03/22
Time	13:29:08.6171927452087402344
***End_of_Header***	
	
Notes	X values guaranteed valid only for Extensometer Displacement-mm (Mean)				
Channels	4				
Samples	1	1	1	1	
Date	2022/03/22	2022/03/22	2022/03/22	2022/03/22	
Time	13:29:08.6171927452087402344	13:29:08.6171927452087402344	13:29:08.6171927452087402344	13:29:08.6219201087951660156	
Y_Unit_Label	Volts	Volts	Volts	Volts	
X_Dimension	Time	Time	Time	Time	
X0	0.0000000000000000E+0	0.0000000000000000E+0	0.0000000000000000E+0	9.9000000000000005E-2	
Delta_X	0.100000	0.100000	0.100000	0.100000	
***End_of_Header***					
X_Value	Extensometer Displacement-mm (Mean)	Force-N (Mean)	Global Displacement-mm (Mean)	Global Displacement-mm (Mean) 1	Comment
0.000000	-0.061288	0.396518	0.000728	0.029213
0.100000	-0.064365	-0.139931	0.018794	0.049787
0.200000	-0.058727	0.581548	0.025203	0.100400
0.300000	-0.057865	0.171915	-0.018899	-0.056782
0.400000	-0.063615	4.029334	0.005480	-0.023077
0.500000	-0.051467	6.213179	-0.004449	-0.071377
0.600000	-0.063561	6.564037	-0.001926	-0.009544
0.700000	-0.064373	2.391068	0.014408	0.052559
0.800000	-0.058667	-1.768110	0.031144	0.057474
0.900000	-0.065245	0.078609	0.010637	-0.005420
1.000000	-0.061088	-1.120354	0.025675	0.074629
1.100000	-0.061122	4.565836	0.008073	-0.032348
1.200000	-0.063496	6.273193	0.033036	0.020482
1.300000	-0.054253	7.903143	0.017868	0.106797
1.400000	-0.064801	8.136886	0.019562	0.042972
1.500000	-0.071170	8.450380	0.101419	0.290354
1.600000	-0.070074	8.704641	0.144422	0.422939
1.700000	-0.053429	10.133861	0.183172	0.477913
1.800000	-0.067508	10.084221	0.251674	0.628939
1.900000	-0.051386	11.374031	0.360285	0.997862
2.000000	-0.063567	13.734383	0.393434	1.046273
2.100000	-0.060168	14.477250	0.539266	1.513945
2.200000	-0.053120	16.702987	0.649170	1.761075
2.300000	-0.062260	25.640385	0.718312	2.009231
2.400000	-0.054872	40.671466	0.728345	2.035617
2.500000	-0.058814	56.204385	0.749051	1.874707
2.600000	-0.058677	73.253815	0.750482	1.737972
2.700000	-0.052081	92.455175	0.784653	1.731593
2.800000	-0.050113	108.990118	0.803923	1.595098
2.900000	-0.061007	126.641422	0.836521	1.372883
3.000000	-0.045940	147.226487	0.890351	1.433177
3.100000	-0.048800	164.330885	0.929590	1.134316
3.200000	-0.048279	186.562778	0.961350	0.906315
3.300000	-0.046154	205.321345	0.998782	0.802020
3.400000	-0.037209	229.185096	1.036012	0.884704
3.500000	-0.048762	257.429115	1.087370	0.967711
3.600000	-0.040315	283.918352	1.125496	1.077018
3.700000	-0.031661	308.521602	1.157982	1.075432
3.800000	-0.038251	330.504211	1.186408	1.090697
3.900000	-0.027095	360.846747	1.224842	1.120481
4.000000	-0.030327	395.907666	1.243844	1.017976
4.100000	-0.024150	422.558692	1.274061	0.990890
4.200000	-0.017756	448.294844	1.294686	0.961741
4.300000	-0.024268	475.304370	1.324071	0.937417
4.400000	-0.026406	499.300133	1.350073	0.903226
4.500000	-0.017195	526.608067	1.379350	0.839239
4.600000	-0.014382	554.424247	1.400877	0.790941
4.700000	-0.004902	588.354011	1.442539	0.817909
4.800000	-0.001490	620.987592	1.482068	0.859785
4.900000	-0.006171	655.002670	1.534385	0.883595
5.000000	-0.012327	689.022363	1.554497	0.894453
5.100000	0.003115	719.679349	1.577295	0.872636
5.200000	-0.003610	748.049969	1.629733	0.961636
5.300000	0.001118	786.178063	1.652171	0.937891
5.400000	0.017279	828.977184	1.706311	1.025020
5.500000	0.020042	871.777315	1.759532	1.091760
5.600000	0.020885	910.227987	1.770427	1.062473
5.700000	0.030308	948.125455	1.802970	1.038300
5.800000	0.028455	981.505823	1.839268	1.018916
5.900000	0.039374	1010.818522	1.872879	0.982144
6.000000	0.038455	1045.994859	1.879648	0.930639
6.100000	0.048184	1086.351136	1.918512	0.982285
6.200000	0.055141	1131.702653	1.976709	0.996916
6.300000	0.056526	1165.602657	2.006608	1.020886
6.400000	0.057248	1204.010737	2.058051	1.009718
6.500000	0.065284	1239.380263	2.089001	0.945977
6.600000	0.086268	1270.630054	2.131501	1.041265
6.700000	0.076692	1297.695830	2.137664	0.965538
6.800000	0.078877	1327.957307	2.155001	0.912110
6.900000	0.094964	1360.664411	2.201565	0.939541
7.000000	0.100737	1397.523167	2.223862	0.992066
7.100000	0.104532	1430.499882	2.266813	0.994773
7.200000	0.113524	1461.218743	2.293356	0.916384
7.300000	0.119112	1491.014152	2.334690	0.938787
7.400000	0.125309	1522.118293	2.358333	0.871723
7.500000	0.130801	1546.055686	2.367411	0.804125
7.600000	0.141024	1572.493681	2.405168	0.784052
7.700000	0.151571	1604.024549	2.428545	0.826830
7.800000	0.167213	1639.266934	2.476885	0.928934
7.900000	0.183108	1666.384066	2.496733	0.847442
8.000000	0.194875	1686.373757	2.542601	0.917839
8.100000	0.206605	1707.077605	2.566858	0.867148
8.200000	0.215961	1731.948666	2.601475	0.882105
8.300000	0.224203	1754.691115	2.629840	0.853867
8.400000	0.239918	1771.660946	2.658446	0.857698
8.500000	0.245617	1791.201507	2.690059	0.927507
8.600000	0.265159	1813.386587	2.736218	0.949536
8.700000	0.279989	1835.727833	2.773938	0.997621
8.800000	0.306549	1852.676161	2.818691	0.980810
8.900000	0.320459	1869.631839	2.838866	0.982553
9.000000	0.342549	1887.966716	2.886322	0.982906
9.100000	0.356599	1897.680904	2.921584	1.024449
9.200000	0.380518	1910.349926	2.936318	0.958600
9.300000	0.388179	1922.527223	2.990821	1.038404
9.400000	0.415712	1936.756759	3.030616	1.068633
9.500000	0.431416	1946.262688	3.079113	1.116311
9.600000	0.455433	1957.222524	3.122377	1.111827
9.700000	0.469975	1968.095927	3.157016	1.103527
9.800000	0.498583	1976.882903	3.202090	1.100685
9.900000	0.516427	1981.479019	3.224135	1.106290
10.000000	0.538182	1988.539983	3.263533	1.091432
10.100000	0.546858	1999.691941	3.316332	1.124331
10.200000	0.581021	2002.323598	3.378205	1.269099
10.300000	0.585657	2002.471349	3.423050	1.246540
10.400000	0.611554	2002.668588	3.427469	1.146637
10.500000	0.620889	2011.969179	3.474839	1.132218
10.600000	0.641090	2020.680117	3.543763	1.207324
10.700000	0.658583	2019.617276	3.571942	1.195364
10.800000	0.667507	2016.428853	3.632357	1.235420
10.900000	0.680429	2020.596504	3.674594	1.300539
11.000000	0.689596	2015.062039	3.720564	1.303221
11.100000	0.694164	2007.188126	3.736478	1.217477
11.200000	0.697198	1987.846010	3.795916	1.205174
11.300000	0.698875	1957.189813	3.865367	1.262509
11.400000	0.692142	1904.846812	3.938995	1.462964
11.500000	0.698465	1861.695854	3.975637	1.447452
11.600000	0.687295	1784.892718	4.003962	1.321065
11.700000	0.608423	827.164107	4.443046	2.462881
11.800000	0.514867	-14.048855	4.072454	1.316343
11.900000	0.518678	-13.749172	4.011881	0.969042
12.000000	0.514740	-14.082629	3.997779	0.806010
12.100000	0.520657	-14.133637	4.003809	0.773345
12.200000	0.521484	-14.545026	3.991996	0.568959
12.300000	0.523483	-16.076457	3.970206	0.311126
12.400000	0.522538	-12.927159	3.992500	0.159520
12.500000	0.530364	-15.160883	4.007907	0.097792
12.600000	0.519306	-14.179467	4.006973	0.017846
12.700000	0.514368	-14.881965	3.979201	-1.273500
12.800000	0.524513	-14.455697	3.988948	-0.308793
12.900000	0.521527	-15.309043	4.001446	-0.025482
13.000000	0.525088	-15.289490	3.988968	-0.025051
13.100000	0.523176	-13.549607	3.989847	-0.044408
13.200000	0.515361	-12.925350	3.990990	-0.003487
13.300000	0.513054	-15.729853	3.991468	0.063336
13.400000	0.525556	-12.885064	3.995221	0.007846
13.500000	0.519530	-12.781170	3.987709	-0.058549
13.600000	0.521029	-13.516791	3.993257	-0.039473
13.700000	0.525222	-13.308846	3.993112	0.037047
13.800000	0.511393	-14.032970	3.989562	0.007113
13.900000	0.516418	-14.319392	3.996639	-0.018125
14.000000	0.516121	-13.561345	3.977134	-0.033690
14.100000	0.520894	-13.071443	3.991259	0.003289
14.200000	0.516922	-15.115785	4.010026	0.057142
14.300000	0.517361	-13.330598	3.981683	-0.032340
14.400000	0.520086	-13.460097	3.984704	-0.023886
14.500000	0.511509	-13.800954	3.990747	0.008050
14.600000	0.519991	-14.650282	3.984354	-0.029827
14.700000	0.518253	-14.138893	3.984366	-0.020357
14.800000	0.513018	-14.532987	3.986076	-0.014014
14.900000	0.517395	-13.896887	3.987896	-0.024818
15.000000	0.514287	-12.288937	3.994646	0.053434
15.100000	0.516952	-14.707573	4.003881	0.039350
15.200000	0.516025	-14.129979	4.008318	-0.012263
15.300000	0.520178	-14.331740	4.001376	0.056992
15.400000	0.515079	-15.787290	3.997600	0.037918
15.500000	0.519640	-15.679927	3.988398	-0.008594
15.600000	0.520956	-14.355738	3.994937	0.032513
15.700000	0.517510	-14.639428	4.001212	0.041438
15.800000	0.520360	-12.868275	3.980284	-0.007535
15.900000	0.518982	-14.048133	3.982561	-0.015716
16.000000	0.512420	-15.538733	3.987815	-0.021710
16.100000	0.523123	-13.013819	3.972516	-0.086735
16.200000	0.523645	-14.164676	3.996705	-0.032307
16.300000	0.514682	-13.814020	4.007098	0.013143
16.400000	0.527945	-13.173096	3.991036	-0.022623
16.500000	0.525149	-15.872767	3.987093	-0.001166
16.600000	0.524894	-16.116453	3.986731	-0.024708
16.700000	0.520566	-15.786703	4.002984	0.011601
16.800000	0.516355	-14.088886	4.005213	0.066381
16.900000	0.525344	-12.890658	3.995171	0.036679
17.000000	0.517088	-14.308195	3.987607	-0.002625
