LabVIEW Measurement	
Writer_Version	2
Reader_Version	2
Separator	Tab
Decimal_Separator	.
Multi_Headings	No
X_Columns	One
Time_Pref	Absolute
Operator	tlstroud
Date	2022/03/22
Time	13:49:08.8337044715881347656
***End_of_Header***	
	
Notes	X values guaranteed valid only for Extensometer Displacement-mm (Mean)				
Channels	4				
Samples	1	1	1	1	
Date	2022/03/22	2022/03/22	2022/03/22	2022/03/22	
Time	13:49:08.8337044715881347656	13:49:08.8337044715881347656	13:49:08.8337044715881347656	13:49:08.83985137939453125	
Y_Unit_Label	Volts	Volts	Volts	Volts	
X_Dimension	Time	Time	Time	Time	
X0	0.0000000000000000E+0	0.0000000000000000E+0	0.0000000000000000E+0	9.9000000000000005E-2	
Delta_X	0.100000	0.100000	0.100000	0.100000	
***End_of_Header***					
X_Value	Extensometer Displacement-mm (Mean)	Force-N (Mean)	Global Displacement-mm (Mean)	Global Displacement-mm (Mean) 1	Comment
0.000000	-0.001357	0.012239	0.006424	0.020467
0.100000	-0.003382	0.268121	0.004573	0.028199
0.200000	0.004629	1.988567	0.002383	-0.004597
0.300000	0.004910	1.461898	-0.001123	0.014646
0.400000	-0.000854	1.664323	-0.009936	-0.039352
0.500000	-0.003094	0.099957	-0.000849	-0.022880
0.600000	-0.001986	0.118401	-0.009819	-0.012158
0.700000	-0.008771	0.148207	0.006173	0.042573
0.800000	-0.000362	0.444874	0.005086	0.018488
0.900000	-0.008368	0.672871	0.000982	-0.036508
1.000000	-0.004238	1.528181	0.008035	0.003262
1.100000	-0.007206	-0.503418	0.005177	0.003198
1.200000	-0.001989	1.633209	-0.015422	-0.050160
1.300000	0.003450	3.143433	0.003249	0.007897
1.400000	0.002890	3.524712	0.012274	0.067695
1.500000	0.006276	6.535559	0.013700	0.037426
1.600000	0.002108	6.111887	0.071053	0.229261
1.700000	-0.002526	5.554285	0.148840	0.406198
1.800000	-0.001709	8.744373	0.235149	0.668496
1.900000	0.005502	6.651068	0.323551	0.934377
2.000000	-0.003606	12.586938	0.430289	1.224773
2.100000	0.001425	14.816096	0.521604	1.497687
2.200000	-0.007159	18.769290	0.661606	1.962758
2.300000	-0.003229	23.303666	0.840465	2.432019
2.400000	-0.004329	36.928884	0.916574	2.639563
2.500000	0.000896	55.558012	0.919910	2.647849
2.600000	9.013406E-5	70.073887	0.910119	2.467517
2.700000	-0.002049	89.841263	0.917031	2.252587
2.800000	-0.002051	113.371716	0.917398	2.001886
2.900000	-0.004045	135.937758	0.930360	1.779051
3.000000	-0.002485	161.328943	0.938449	1.493383
3.100000	0.000330	186.248805	0.985922	1.371083
3.200000	0.002122	208.135344	0.977549	0.944704
3.300000	0.004117	232.678441	1.004396	0.487119
3.400000	0.013569	259.398828	1.032504	0.339517
3.500000	0.004009	294.426135	1.077705	0.457565
3.600000	0.007441	327.391822	1.122540	0.612859
3.700000	0.003514	353.746459	1.128077	0.619325
3.800000	0.007641	378.569591	1.176945	0.751006
3.900000	0.011068	402.977270	1.196133	0.780154
4.000000	0.018417	435.178709	1.230144	0.851871
4.100000	0.014479	467.186442	1.251749	0.775546
4.200000	0.020676	502.919605	1.287633	0.900335
4.300000	0.027080	535.974571	1.335527	0.976576
4.400000	0.033611	570.344413	1.365034	0.966216
4.500000	0.029816	597.675351	1.395713	0.937693
4.600000	0.032024	624.717570	1.396387	0.798776
4.700000	0.040698	654.600215	1.430693	0.883839
4.800000	0.035049	691.268994	1.487003	0.910804
4.900000	0.043148	727.121756	1.515967	0.929742
5.000000	0.046183	765.075506	1.561318	0.971554
5.100000	0.042959	797.250541	1.589802	0.980755
5.200000	0.051725	827.184601	1.604304	0.928739
5.300000	0.052734	853.775709	1.630990	0.866603
5.400000	0.056938	887.935629	1.675229	0.909610
5.500000	0.051511	920.066610	1.701112	0.885473
5.600000	0.059019	955.158800	1.725520	0.963734
5.700000	0.064692	985.648630	1.777448	1.012609
5.800000	0.065903	1015.409166	1.793751	0.901377
5.900000	0.074335	1046.054965	1.820205	0.890163
6.000000	0.067630	1076.814572	1.841355	0.813850
6.100000	0.075373	1107.761417	1.877469	0.845525
6.200000	0.076268	1140.524516	1.898973	0.868138
6.300000	0.078715	1178.762368	1.936875	0.883620
6.400000	0.079263	1215.604270	1.970159	0.865814
6.500000	0.100027	1251.730950	1.998721	0.873459
6.600000	0.090895	1284.060580	2.045210	0.929655
6.700000	0.095206	1316.242839	2.078289	0.884027
6.800000	0.100080	1346.021960	2.096334	0.876172
6.900000	0.110844	1362.506636	2.139531	0.936563
7.000000	0.117140	1368.470939	2.154706	0.915792
7.100000	0.134947	1373.922274	2.229007	1.026316
7.200000	0.159361	1374.875759	2.257607	1.043442
7.300000	0.193886	1377.988818	2.308557	1.091997
7.400000	0.212959	1379.571464	2.336684	1.070585
7.500000	0.234363	1385.214227	2.376535	1.103207
7.600000	0.265485	1390.633411	2.395270	1.024473
7.700000	0.288374	1392.066977	2.453892	1.096749
7.800000	0.317262	1397.462680	2.470932	1.101213
7.900000	0.339195	1405.973819	2.507463	1.068964
8.000000	0.365710	1414.030704	2.531168	1.105311
8.100000	0.396840	1414.490489	2.597314	1.077134
8.200000	0.417792	1419.625387	2.640245	1.117898
8.300000	0.445315	1424.068551	2.652823	1.010089
8.400000	0.469456	1429.120535	2.712704	1.092698
8.500000	0.493462	1431.278051	2.738240	1.060562
8.600000	0.502696	1433.110057	2.758706	1.064054
8.700000	0.527295	1437.048086	2.795376	1.000387
8.800000	0.557287	1445.593567	2.809683	0.988326
8.900000	0.589203	1449.908124	2.872011	1.071243
9.000000	0.612358	1453.681853	2.904341	1.086669
9.100000	0.639261	1455.178871	2.935000	0.990849
9.200000	0.654170	1458.029152	2.949472	0.900102
9.300000	0.681641	1459.268642	2.996563	1.007085
9.400000	0.693913	1466.400061	3.009888	0.871846
9.500000	0.716425	1468.615823	3.079259	0.995855
9.600000	0.737548	1470.946606	3.093488	0.980400
9.700000	0.762656	1476.243675	3.121940	0.947504
9.800000	0.782971	1479.264891	3.157240	1.019609
9.900000	0.804889	1481.054052	3.197375	0.949033
10.000000	0.827045	1483.378162	3.225840	0.942775
10.100000	0.850884	1481.768182	3.254779	0.937914
10.200000	0.860716	1485.601766	3.274133	0.951252
10.300000	0.889328	1491.365509	3.297487	0.877606
10.400000	0.902866	1493.243159	3.345938	0.982511
10.500000	0.927808	1493.975484	3.371081	0.855572
10.600000	0.941726	1494.680752	3.385431	0.851712
10.700000	0.960526	1497.321989	3.405032	0.830341
10.800000	0.987334	1502.160830	3.449500	0.851023
10.900000	1.003893	1503.260696	3.492692	0.866479
11.000000	1.033704	1507.424597	3.524887	0.871934
11.100000	1.055234	1509.288234	3.565237	0.904789
11.200000	1.073271	1511.226605	3.616419	0.999754
11.300000	1.090840	1509.084955	3.642962	1.009607
11.400000	1.117153	1509.838484	3.659391	0.917368
11.500000	1.130959	1513.092603	3.708019	0.984445
11.600000	1.159871	1512.698669	3.740288	1.038655
11.700000	1.169197	1516.587762	3.773219	1.075062
11.800000	1.187013	1518.915905	3.820300	1.081728
11.900000	1.200659	1519.955970	3.849241	1.048175
12.000000	1.233608	1519.143844	3.863124	0.989933
12.100000	1.242034	1519.864089	3.885153	0.933984
12.200000	1.267546	1521.772211	3.955696	0.992791
12.300000	1.282689	1522.015704	3.983839	0.997633
12.400000	1.294374	1506.309892	4.011700	1.033157
12.500000	1.299569	1490.474780	4.067292	1.047024
12.600000	1.305800	1484.125227	4.072342	0.971473
12.700000	1.297554	1480.691877	4.123521	1.024108
12.800000	1.303014	1477.948593	4.125761	0.896569
12.900000	1.303351	1474.609353	4.150496	0.881541
13.000000	1.308149	1471.770849	4.122335	0.758033
13.100000	1.297674	1470.236386	4.126926	0.712331
13.200000	1.305204	1468.168760	4.131582	0.521524
13.300000	1.310952	1469.779738	4.144515	0.469824
13.400000	1.314997	1469.922637	4.136877	0.366727
13.500000	1.301221	1467.932922	4.118630	0.161625
13.600000	1.322900	1465.689240	4.117600	0.130194
13.700000	1.320705	1466.681501	4.123154	0.006805
13.800000	1.273402	1463.478602	4.117608	-0.025513
13.900000	1.186726	1464.545879	4.137379	-0.033379
14.000000	0.953480	1462.634527	4.120021	-0.008601
14.100000	0.930728	1465.116505	4.133951	0.018130
14.200000	0.865284	1462.641266	4.143353	0.035276
14.300000	0.813054	1459.157524	4.130111	-0.044271
14.400000	0.680295	1463.747128	4.122345	-0.041141
14.500000	0.494084	1460.128538	4.140453	0.058744
14.600000	0.433930	1459.227194	4.130985	0.045579
14.700000	0.385774	1458.381685	4.139834	0.042067
14.800000	-0.071296	1456.643052	4.128391	0.039687
14.900000	-0.135610	1457.560362	4.132295	-0.022067
15.000000	-0.385279	1456.482795	4.118450	-0.000319
15.100000	-0.212224	1458.646612	4.129806	-0.012093
15.200000	0.429996	1457.229175	4.136725	-0.020532
15.300000	1.307069	1458.588878	4.141154	0.037744
15.400000	0.911469	1456.875507	4.145630	0.060190
15.500000	0.363293	1454.624462	4.135750	-0.009512
15.600000	-0.262153	1454.617984	4.136829	0.017968
15.700000	-0.511352	1456.668799	4.124352	-0.046039
15.800000	-0.705037	1457.001339	4.125888	-0.009024
15.900000	-0.428991	1453.205418	4.141130	0.026911
16.000000	-0.217456	1453.201185	4.136463	0.047219
16.100000	-0.023140	1451.761253	4.131544	0.011621
16.200000	0.346674	1454.886706	4.115792	-0.063309
16.300000	0.343543	1454.491230	4.140495	-0.001100
16.400000	0.847713	1454.097211	4.128528	-0.045553
16.500000	0.853982	1453.081242	4.136130	-0.004097
16.600000	0.857979	1452.952247	4.130175	-0.022829
16.700000	0.848481	1462.380139	4.130224	0.021311
16.800000	0.854313	1507.800286	4.130522	0.013091
16.900000	0.849263	1525.736623	4.130234	-0.031017
17.000000	0.849430	1523.847277	4.147256	0.028499
17.100000	0.852676	1519.385221	4.172481	0.118160
17.200000	0.852140	1522.194776	4.223109	0.305435
17.300000	0.853941	1517.310456	4.279554	0.403270
17.400000	0.848762	1506.781317	4.336533	0.603122
17.500000	0.859481	1481.009324	4.376130	0.695542
17.600000	0.855942	1456.826480	4.441607	0.904687
17.700000	0.845182	1434.359246	4.480173	1.022518
17.800000	0.845705	1404.206264	4.541466	1.193601
17.900000	0.848259	1361.167311	4.573730	1.288115
18.000000	0.853092	1315.200309	4.617813	1.376842
18.100000	0.850611	1257.617513	4.662930	1.426375
18.200000	0.846524	892.688541	4.833868	1.746533
18.300000	0.838436	-13.811110	5.316900	3.034019
18.400000	0.839587	-16.065016	5.255803	2.691007
18.500000	0.835163	-13.945717	5.243303	2.547167
18.600000	0.835684	-14.409247	5.253114	2.370743
18.700000	0.838128	-14.282118	5.237167	2.215355
18.800000	0.840108	-15.971063	5.253715	2.085659
18.900000	0.834519	-14.014689	5.265110	2.028648
19.000000	0.836100	-14.827964	5.241920	1.826541
19.100000	0.836513	-13.911703	5.239198	1.693347
19.200000	0.831744	-14.250508	5.260643	1.310831
19.300000	0.839919	-12.763410	5.255892	-0.179288
19.400000	0.837884	-12.898016	5.252073	-0.010875
19.500000	0.834618	-13.238296	4.733824	-1.371098
19.600000	0.837557	-14.795967	3.843952	-4.087004
19.700000	0.834716	-13.626762	2.942324	-6.639762
19.800000	0.836403	-14.551019	3.092164	-6.332313
19.900000	0.830741	-13.159918	3.156872	-6.177312
20.000000	0.833100	-14.799192	3.371903	-5.458438
20.100000	0.836340	-14.536553	3.184337	-5.987384
20.200000	0.835201	-14.854009	3.080365	-6.372051
20.300000	0.836744	-15.702425	3.085044	-6.337389
21.300000	0.830299	-13.599678	3.516184	1.255743
21.400000	0.834141	-14.744549	3.506715	1.146506
21.500000	0.837885	-13.690854	3.515483	1.174536
21.600000	0.838522	-15.421385	3.507481	0.814649
21.700000	0.837726	-13.451287	3.522959	0.479441
21.800000	0.829671	-15.711673	3.521332	0.361291
21.900000	0.843886	-12.634247	3.509466	0.265792
