LabVIEW Measurement	
Writer_Version	2
Reader_Version	2
Separator	Tab
Decimal_Separator	.
Multi_Headings	No
X_Columns	One
Time_Pref	Absolute
Operator	stocknot
Date	2022/03/22
Time	13:42:46.8692779541015625
***End_of_Header***	
	
Notes	X values guaranteed valid only for Extensometer Displacement-mm (Mean)				
Channels	4				
Samples	1	1	1	1	
Date	2022/03/22	2022/03/22	2022/03/22	2022/03/22	
Time	13:42:46.8692779541015625	13:42:46.8692779541015625	13:42:46.8692779541015625	13:42:46.8720974922180175781	
Y_Unit_Label	Volts	Volts	Volts	Volts	
X_Dimension	Time	Time	Time	Time	
X0	0.0000000000000000E+0	0.0000000000000000E+0	0.0000000000000000E+0	9.9000000000000005E-2	
Delta_X	0.100000	0.100000	0.100000	0.100000	
***End_of_Header***					
X_Value	Extensometer Displacement-mm (Mean)	Force-N (Mean)	Global Displacement-mm (Mean)	Global Displacement-mm (Mean) 1	Comment
0.000000	-0.007494	-0.287784	0.003258	-0.015212
0.100000	-0.000224	-0.127660	0.004272	-0.051449
0.200000	-0.006408	0.164466	-0.001667	-0.029773
0.300000	0.005375	-0.010477	-0.006136	0.004915
0.400000	-0.002992	2.437148	0.004378	0.061461
0.500000	-0.002664	-0.498152	0.011668	0.075345
0.600000	-0.004480	0.972345	0.003802	0.023332
0.700000	-0.002801	-0.665410	0.017678	0.113590
0.800000	-0.000748	-1.256872	0.006238	-0.003407
0.900000	-0.005871	2.340029	0.007735	0.056880
1.000000	-0.002541	-0.374420	-0.005027	-0.039905
1.100000	-0.001646	-0.946453	0.001019	-0.001951
1.200000	0.002340	2.737978	-0.005525	-0.019805
1.300000	0.004517	5.236638	0.006617	0.038854
1.400000	-0.008322	6.118497	0.040975	0.156753
1.500000	-0.008381	8.182195	0.084586	0.307645
1.600000	-0.006828	7.972263	0.144201	0.582763
1.700000	-0.005501	8.566628	0.169975	0.619925
1.800000	-0.006701	11.651584	0.219248	0.886733
1.900000	0.000676	13.189494	0.265646	1.064034
2.000000	-0.005534	17.442286	0.322489	1.356385
2.100000	-0.004814	22.359066	0.374200	1.543432
2.200000	-0.011673	24.157629	0.403446	1.697607
2.300000	-0.010253	30.295762	0.457565	1.884070
2.400000	-0.002844	18.800409	0.464839	1.778390
2.500000	-0.018193	18.409769	0.464365	1.574922
2.600000	-0.004496	16.606572	0.479359	1.409413
2.700000	-0.007436	24.417532	0.452478	1.186363
2.800000	-0.010103	29.374094	0.396437	0.760764
2.900000	-0.015240	34.458198	0.384922	0.508675
3.000000	-0.001500	40.799074	0.384171	0.266875
3.100000	-0.009435	47.682537	0.402303	0.120041
3.200000	0.003002	53.659149	0.388200	-0.053200
3.300000	-0.006649	61.108104	0.439523	-0.069540
3.400000	-0.011147	67.336832	0.473744	0.019547
3.500000	-0.005641	78.231483	0.539273	0.312813
3.600000	-0.010554	85.097328	0.595899	0.474278
3.700000	-0.005416	90.247622	0.636354	0.756111
3.800000	-0.006298	100.204248	0.679222	1.164124
3.900000	-0.000172	110.767643	0.704225	1.324003
4.000000	-0.004626	121.913573	0.739707	1.481660
4.100000	0.003261	130.898156	0.784499	1.590595
4.200000	-0.003569	142.734481	0.833870	1.848842
4.300000	0.002054	156.875727	0.876030	1.811784
4.400000	0.002810	167.236754	0.931778	1.921576
4.500000	-0.001995	179.018317	0.972748	1.804887
4.600000	0.009051	191.913634	1.047160	1.880111
4.700000	0.005842	201.726965	1.088732	1.890098
4.800000	0.007165	212.914476	1.185286	2.097614
4.900000	0.014262	224.671710	1.212652	2.128687
5.000000	0.002038	235.770475	1.241168	2.084360
5.100000	0.010053	250.871148	1.294957	2.134713
5.200000	0.015230	262.428362	1.311985	2.002461
5.300000	0.018914	272.670174	1.321495	1.868615
5.400000	0.011886	287.658948	1.356358	1.765690
5.500000	0.013953	304.905981	1.414034	1.842531
5.600000	0.016035	320.825550	1.412349	1.536754
5.700000	0.014606	332.859316	1.431227	1.426768
5.800000	0.022130	347.772672	1.462195	1.168838
5.900000	0.021966	360.373330	1.487889	1.146538
6.000000	0.023899	372.315770	1.528710	1.204367
6.100000	0.024250	388.675982	1.556457	1.086255
6.200000	0.025118	399.599136	1.598692	1.191268
6.300000	0.040669	418.381712	1.638450	1.318193
6.400000	0.027417	435.760408	1.686576	1.380800
6.500000	0.038258	451.158812	1.695872	1.176259
6.600000	0.039236	464.053947	1.726933	1.304062
6.700000	0.032783	476.341238	1.775308	1.441558
6.800000	0.037169	487.124721	1.794992	1.385000
6.900000	0.041117	500.692402	1.809744	1.344526
7.000000	0.037878	518.635705	1.865020	1.396701
7.100000	0.036404	534.176298	1.869084	1.314313
7.200000	0.045333	549.935815	1.923517	1.347442
7.300000	0.035578	569.603556	1.957011	1.332304
7.400000	0.038692	588.245994	2.000710	1.313249
7.500000	0.052676	602.059094	2.036780	1.419082
7.600000	0.053913	618.236467	2.084205	1.494848
7.700000	0.053870	631.921633	2.102312	1.361390
7.800000	0.056440	644.614712	2.112840	1.327058
7.900000	0.054150	655.540418	2.155892	1.436421
8.000000	0.061593	665.672373	2.168202	1.281042
8.100000	0.060285	681.489790	2.189487	1.324882
8.200000	0.065249	694.307604	2.221774	1.250718
8.300000	0.063835	714.233014	2.258009	1.257577
8.400000	0.062795	729.938234	2.298022	1.239825
8.500000	0.067219	745.050355	2.330734	1.230103
8.600000	0.070914	759.903587	2.365020	1.162412
8.700000	0.067323	773.549281	2.392590	1.215574
8.800000	0.068660	788.608504	2.418692	1.278007
8.900000	0.069829	801.519756	2.458967	1.263815
9.000000	0.074336	814.669105	2.482630	1.299998
9.100000	0.064452	831.247246	2.525323	1.402160
9.200000	0.068472	846.836630	2.571796	1.457234
9.300000	0.078443	865.930475	2.611210	1.477594
9.400000	0.077531	877.152809	2.632535	1.388056
9.500000	0.082614	889.804811	2.638371	1.298320
9.600000	0.087683	902.759831	2.670271	1.277950
9.700000	0.088696	914.381307	2.716530	1.342083
9.800000	0.093515	926.711317	2.741156	1.340801
9.900000	0.092102	937.079374	2.771211	1.309536
10.000000	0.095021	943.444075	2.793099	1.297863
10.100000	0.090106	936.206085	2.802221	1.157726
10.200000	0.083472	928.823836	2.859923	1.207775
10.300000	0.092269	931.351424	2.867444	1.068398
10.400000	0.089391	928.346845	2.876122	1.022247
10.500000	0.088578	928.915560	2.868051	0.955777
10.600000	0.095869	927.619566	2.856441	0.774462
10.700000	0.091479	926.343091	2.869701	0.652210
10.800000	0.089554	925.478711	2.895036	0.640841
10.900000	0.085627	927.231918	2.866596	0.402109
11.000000	0.089977	924.815430	2.864315	0.303938
11.100000	0.083755	924.310826	2.868191	0.284856
11.200000	0.083868	924.982072	2.867883	0.033110
11.300000	0.096912	926.504535	2.879922	0.052528
11.400000	0.097899	923.005165	2.865009	-0.044310
11.500000	0.092022	922.124783	2.878400	0.036072
11.600000	0.097267	923.207127	2.856539	0.014928
11.700000	0.102810	925.357702	2.877212	0.026530
11.800000	0.088491	925.658500	2.851904	-0.175521
11.900000	0.108112	920.792983	2.854718	-0.048689
12.000000	0.124228	924.453556	2.866227	-0.000692
12.100000	0.163516	922.889742	2.872027	0.016602
12.200000	0.195505	924.016879	2.849519	-0.076758
12.300000	0.334341	924.550699	2.876337	-0.015464
12.400000	0.081277	922.076052	2.897984	0.135539
12.500000	-2.274693	921.715444	2.883837	0.030187
12.600000	-3.825239	923.056494	2.879776	0.089267
12.700000	-4.472144	921.266403	2.869756	-0.029287
12.800000	-4.597136	921.998684	2.857466	0.022876
12.900000	-4.619464	921.923090	2.871585	0.063469
13.000000	-4.624685	922.538368	2.878915	0.061386
13.100000	-4.630035	921.310885	2.892830	0.083141
13.200000	-4.645939	920.169022	2.876041	0.114040
13.300000	-4.673246	921.585363	2.872544	-0.013303
13.400000	-4.690733	921.795555	2.887770	-0.043533
13.500000	-4.716616	920.445887	2.865708	-0.081036
13.600000	-4.679995	921.757648	2.868781	-0.044660
13.700000	-4.634455	921.829608	2.876046	0.028679
13.800000	-4.636548	920.216185	2.882346	0.105786
13.900000	-4.703370	919.776953	2.875009	0.013145
14.000000	-4.769134	919.313924	2.878522	-0.003915
14.100000	-5.059887	919.616716	2.897032	0.020737
14.200000	-5.038315	920.318034	2.905590	0.114462
14.300000	-5.209419	921.252995	2.879825	0.035046
14.400000	-5.947496	918.519268	2.903246	0.064544
14.500000	-6.627467	919.901966	2.867028	0.008969
14.600000	-6.961445	921.322005	2.882876	0.060789
14.700000	-6.945998	921.141220	2.869737	-0.027257
14.800000	-6.790501	918.500594	2.876026	-0.029947
14.900000	-6.052642	921.072175	2.886610	0.046616
15.000000	-5.365133	920.248755	2.868309	-0.035423
15.100000	-3.003094	921.324161	2.862552	-0.145721
15.200000	-2.028089	922.094487	2.881166	-0.102324
15.300000	-2.271626	919.889842	2.904844	0.103510
15.400000	-3.130960	918.167412	2.878483	-0.097410
15.500000	-3.108843	920.521480	2.879484	0.047669
15.600000	-3.309569	921.148429	2.867622	-0.065345
15.700000	-3.061556	920.745009	2.883991	0.049548
15.800000	-2.968672	918.892940	2.881689	0.032584
15.900000	-3.097526	923.316833	2.876920	-0.037462
16.000000	-2.433454	918.407717	2.869668	0.005813
16.100000	-1.634955	919.175114	2.874170	0.048333
16.200000	0.132774	917.431804	2.870782	-0.040959
16.300000	1.288062	921.576473	2.875938	-0.128061
16.400000	1.854879	920.455949	2.891836	0.056518
16.500000	2.036393	919.227613	2.886874	0.033695
16.600000	1.831827	917.849994	2.895401	0.113745
16.700000	1.823329	920.574325	2.878298	-0.015069
16.800000	1.617013	919.556734	2.871640	-0.045821
16.900000	1.332052	919.438884	2.872920	-0.022848
17.000000	-0.276530	918.402137	2.878288	0.032672
17.100000	0.595253	921.692666	2.887637	0.057379
17.200000	-0.553475	919.306038	2.864736	-0.017729
17.300000	-4.131266	918.982242	2.876106	0.003083
17.400000	-4.795193	917.792659	2.871105	-0.090562
17.500000	-5.925866	919.979688	2.892532	0.016231
17.600000	-6.539795	920.690270	2.892793	-0.003765
17.700000	-6.786600	921.515176	2.884316	0.024018
17.800000	-6.562475	919.414301	2.869500	-0.010061
17.900000	-6.089846	921.126585	2.883161	0.044544
18.000000	-6.314884	919.481731	2.881326	0.014873
18.100000	-6.535991	920.291846	2.891302	0.015096
18.200000	-6.747870	917.781801	2.881592	0.067030
18.300000	-5.347661	920.242478	2.880955	0.020796
18.400000	-4.155247	919.796382	2.871371	-0.003528
18.500000	-2.552713	919.312003	2.889702	-0.003770
18.600000	-2.187739	918.165739	2.894110	-0.002564
18.700000	-2.155675	918.584422	2.896068	0.057887
18.800000	-2.286260	919.474161	2.881944	0.047007
18.900000	-2.107749	921.889231	2.871270	-0.045701
19.000000	-1.897804	945.406472	2.879642	-0.010256
19.100000	-1.579119	965.168421	2.862782	-0.120791
19.200000	-0.781241	976.785388	2.871743	-0.040546
19.300000	-0.672391	994.335989	2.905267	0.094836
19.400000	-0.776894	1007.559097	2.933987	0.269060
19.500000	-0.622835	1021.092193	2.960559	0.285222
19.600000	-0.379660	1033.088376	3.000334	0.440237
19.700000	-0.200960	1037.823873	2.999111	0.420582
19.800000	-0.121205	1043.789685	3.013392	0.550596
19.900000	-0.086148	1054.325792	3.029585	0.654980
20.000000	-0.032787	1067.810412	3.062852	0.758289
20.100000	0.043935	1077.338274	3.088358	0.935350
20.200000	0.118580	1091.793552	3.130370	1.077125
20.300000	0.136061	1101.561461	3.181249	1.146210
20.400000	0.118908	1108.190745	3.228119	1.227020
20.500000	0.073611	1115.621041	3.251733	1.213202
20.600000	0.078106	1124.642706	3.304733	1.266685
20.700000	0.101049	1128.395810	3.347097	1.447896
20.800000	0.099026	1130.326741	3.394432	1.582661
20.900000	0.135193	1133.509676	3.439677	1.709697
21.000000	0.157571	1135.646410	3.490488	1.785790
21.100000	0.074001	1140.909220	3.534992	1.862995
21.200000	0.063930	1144.526046	3.591235	1.914918
21.300000	-0.242917	1146.533063	3.636252	1.904584
21.400000	-0.425127	1150.517388	3.673475	1.850749
21.500000	-0.501696	1151.551935	3.703474	1.889960
21.600000	-0.701866	1154.596137	3.744025	1.833902
21.700000	-0.925909	1155.431215	3.775545	1.786712
21.800000	-1.331514	1157.304567	3.813038	1.748250
21.900000	-1.700958	1159.993955	3.863841	1.768017
22.000000	-1.544434	1162.658532	3.926476	1.809191
22.100000	-1.224498	1164.179003	3.967084	1.807518
22.200000	-1.133671	1167.076745	4.029335	1.830100
22.300000	-1.110887	1169.700596	4.071392	1.816128
22.400000	-1.059176	1173.782673	4.109508	1.815399
22.500000	-1.100971	1175.784250	4.172355	1.949567
22.600000	-1.230324	1179.005339	4.212144	1.961972
22.700000	-1.196257	1179.918534	4.263537	2.031348
22.800000	-0.064490	1181.809015	4.314443	2.086481
22.900000	0.501748	1182.346008	4.378453	2.148175
23.000000	0.035986	1186.954577	4.414839	2.038423
23.100000	-0.143792	1189.747605	4.466044	2.083383
23.200000	-1.220600	1190.275263	4.507710	1.994698
23.300000	-1.117007	1191.203950	4.593472	2.174741
23.400000	0.184730	1194.375317	4.630102	2.162492
23.500000	0.212196	1196.596695	4.690240	2.168990
23.600000	0.232461	1197.696429	4.729847	2.158801
23.700000	0.205167	1200.510437	4.796554	2.216616
23.800000	0.130832	1199.901284	4.865956	2.300305
23.900000	0.045674	1203.190716	4.938392	2.336022
24.000000	-0.072912	1204.236280	4.980463	2.363841
24.100000	0.061415	1203.949797	5.035638	2.368365
24.200000	0.065815	1207.900675	5.081523	2.398533
24.300000	0.062341	1211.809856	5.169207	2.400781
24.400000	0.055937	1208.795774	5.207913	2.414109
24.500000	0.047511	1211.602624	5.280224	2.455896
24.600000	0.081099	1213.570309	5.313209	2.429221
24.700000	0.139925	1213.226120	5.362864	2.374110
24.800000	0.230462	1216.442854	5.421115	2.318705
24.900000	0.260772	1218.451702	5.458301	2.165997
25.000000	0.297570	1220.775264	5.528068	2.284033
25.100000	0.301672	1219.309371	5.561654	2.195198
25.200000	0.196287	1216.361700	5.620493	2.249906
25.300000	0.235685	1224.680186	5.707875	2.244206
25.400000	0.200701	1220.062584	5.736726	2.214248
25.500000	0.083048	1222.151364	5.787945	2.118175
25.600000	0.109563	1222.500696	5.843929	2.206607
25.700000	0.055517	1221.997839	5.901651	2.244715
25.800000	0.035877	1223.566750	5.948802	2.201596
25.900000	0.042486	1223.392312	5.978618	2.182977
26.000000	0.033332	1221.991722	6.005666	1.991565
26.100000	-0.005456	1223.589445	6.081432	2.166675
26.200000	-0.006115	1227.955880	6.122961	2.089466
26.300000	-0.012695	1223.038245	6.177613	1.973591
26.400000	-0.009755	1223.414534	6.224108	2.023627
26.500000	-0.001795	1217.726987	6.280160	2.058432
26.600000	-0.007574	1214.809616	6.317737	1.979145
26.700000	-0.007127	1207.927784	6.354693	1.900831
26.800000	-0.003953	1196.243367	6.385555	1.814442
26.900000	0.012829	1185.106447	6.450646	1.958349
27.000000	0.008521	1163.477954	6.512551	2.118268
27.100000	0.011917	1139.264878	6.560714	1.997157
27.200000	0.029693	1099.948314	6.636299	2.153955
27.300000	0.033184	460.338089	6.632091	1.886572
27.400000	0.031227	8.605091	6.510442	1.240165
27.500000	0.038246	3.658035	6.474079	0.805329
27.600000	0.039100	3.696260	6.520601	0.848061
27.700000	0.044281	3.965348	6.534867	0.751817
27.800000	0.031274	1.804313	6.552566	0.706088
27.900000	0.048236	0.277018	6.577889	0.541785
28.000000	0.049263	2.397851	6.557278	0.192963
28.100000	0.044677	2.634814	6.549372	-0.040545
28.200000	0.041008	1.983518	6.547466	-0.354898
28.300000	0.045477	5.805375	6.538950	-0.388892
28.400000	0.047327	3.364352	6.568226	0.199773
28.500000	0.045457	1.938002	6.534113	0.266210
28.600000	0.054424	2.148353	6.554086	0.138624
28.700000	0.040983	4.111477	6.551813	0.072765
28.800000	0.054881	3.499022	6.537710	-0.056710
28.900000	0.063431	3.355561	6.576460	-0.019172
29.000000	0.049284	2.485396	6.843153	1.164357
29.100000	0.048641	3.585866	6.847150	1.254149
29.200000	0.049696	2.173542	6.828249	1.153007
29.300000	0.049321	5.110753	6.817400	1.173575
29.400000	0.070846	2.851751	6.828463	1.074774
